timestamp,ax,ay,az,qs,qx,qy,qz,amag
1636030844659908.000000,-0.020557,-0.012749,1.027057,-0.007625,0.030261,0.418745,0.907568,0.031745
1636030844669549.000000,0.002318,-0.011651,1.018822,-0.007625,0.030261,0.418745,0.907568,0.012103
1636030844679226.000000,0.018422,-0.010736,1.020896,-0.007625,0.030261,0.418745,0.907568,0.028178
1636030844688874.000000,0.025986,-0.010980,1.018151,-0.007625,0.030261,0.418745,0.907568,0.038355
1636030844698512.000000,0.032635,-0.009699,1.016443,-0.007625,0.030261,0.418745,0.907568,0.047161
1636030844708144.000000,0.041541,-0.008845,1.013576,-0.007625,0.030261,0.418745,0.907568,0.059410
1636030844717805.000000,0.051850,-0.009455,1.010160,-0.007625,0.030261,0.418745,0.907568,0.073934
1636030844727436.000000,0.058865,-0.009028,1.008757,-0.007625,0.030261,0.418745,0.907568,0.083736
1636030844737095.000000,0.054900,-0.007869,1.013210,-0.007625,0.030261,0.418745,0.907568,0.078038
1636030844746733.000000,0.040870,-0.007503,1.021018,-0.007625,0.030261,0.418745,0.907568,0.058284
1636030844756368.000000,0.027694,-0.008418,1.025471,-0.007625,0.030261,0.418745,0.907568,0.040060
1636030844766034.000000,0.013725,-0.010248,1.030778,-0.007625,0.030261,0.418745,0.907568,0.021949
1636030844775668.000000,-0.003599,-0.011163,1.037305,-0.007625,0.030261,0.418745,0.907568,0.012269
1636030844785295.000000,-0.016592,-0.011529,1.039989,-0.007625,0.030261,0.418745,0.907568,0.026144
1636030844794874.000000,-0.025315,-0.012200,1.040355,-0.007625,0.030261,0.418745,0.907568,0.037822
1636030844804477.000000,-0.031659,-0.012627,1.041087,-0.007625,0.030261,0.418745,0.907568,0.046519
1636030844814214.000000,-0.035868,-0.012627,1.043100,-0.007625,0.030261,0.418745,0.907568,0.052273
1636030844823822.000000,-0.031354,-0.012322,1.041758,-0.007625,0.030261,0.418745,0.907568,0.046021
1636030844833403.000000,-0.020496,-0.011163,1.039013,-0.007625,0.030261,0.418745,0.907568,0.031061
1636030844842996.000000,-0.009699,-0.010248,1.036390,-0.007625,0.030261,0.418745,0.907568,0.017122
1636030844852723.000000,0.001586,-0.009638,1.031937,-0.007625,0.030261,0.418745,0.907568,0.009896
1636030844862304.000000,0.012078,-0.008784,1.027057,-0.007625,0.030261,0.418745,0.907568,0.019207
1636030844872025.000000,0.020130,-0.007991,1.022604,-0.007625,0.030261,0.418745,0.907568,0.029568
1636030844881602.000000,0.026840,-0.008235,1.018883,-0.007625,0.030261,0.418745,0.907568,0.038841
1636030844891176.000000,0.031964,-0.009394,1.017297,-0.007625,0.030261,0.418745,0.907568,0.046170
1636030844900895.000000,0.033245,-0.010248,1.017541,-0.007625,0.030261,0.418745,0.907568,0.048119
1636030844910498.000000,0.031598,-0.010553,1.019432,-0.007625,0.030261,0.418745,0.907568,0.045915
1636030844920083.000000,0.028243,-0.010980,1.020774,-0.007625,0.030261,0.418745,0.907568,0.041423
1636030844929831.000000,0.022692,-0.012139,1.021872,-0.007625,0.030261,0.418745,0.907568,0.034310
1636030844939409.000000,0.017873,-0.012444,1.024739,-0.007625,0.030261,0.418745,0.907568,0.028173
1636030844949009.000000,0.014213,-0.011651,1.027728,-0.007625,0.030261,0.418745,0.907568,0.023233
1636030844958736.000000,0.012566,-0.010736,1.028765,-0.007625,0.030261,0.418745,0.907568,0.020762
1636030844968325.000000,0.015189,-0.009638,1.028216,-0.007625,0.030261,0.418745,0.907568,0.023544
1636030844977906.000000,0.019215,-0.008845,1.027301,-0.007625,0.030261,0.418745,0.907568,0.028577
1636030844987626.000000,0.021838,-0.009211,1.025288,-0.007625,0.030261,0.418745,0.907568,0.032228
1636030844997199.000000,0.019886,-0.009516,1.027362,-0.007625,0.030261,0.418745,0.907568,0.029689
1636030845006925.000000,0.017080,-0.008967,1.030656,-0.007625,0.030261,0.418745,0.907568,0.025765
1636030845016527.000000,0.019032,-0.008113,1.030717,-0.007625,0.030261,0.418745,0.907568,0.028111
1636030845026118.000000,0.023973,-0.007686,1.029558,-0.007625,0.030261,0.418745,0.907568,0.034763
1636030845035833.000000,0.028487,-0.007198,1.027118,-0.007625,0.030261,0.418745,0.907568,0.040925
1636030845045411.000000,0.031049,-0.007259,1.024800,-0.007625,0.030261,0.418745,0.907568,0.044506
1636030845055112.000000,0.034465,-0.008418,1.022238,-0.007625,0.030261,0.418745,0.907568,0.049462
1636030845064684.000000,0.035319,-0.009150,1.020835,-0.007625,0.030261,0.418745,0.907568,0.050780
1636030845074285.000000,0.030805,-0.008906,1.021872,-0.007625,0.030261,0.418745,0.907568,0.044466
1636030845084023.000000,0.021960,-0.009577,1.024556,-0.007625,0.030261,0.418745,0.907568,0.032499
1636030845093597.000000,0.014030,-0.011407,1.028704,-0.007625,0.030261,0.418745,0.907568,0.022887
1636030845103178.000000,0.016592,-0.012078,1.029314,-0.007625,0.030261,0.418745,0.907568,0.026391
1636030845112917.000000,0.028487,-0.012444,1.021994,-0.007625,0.030261,0.418745,0.907568,0.042165
1636030845122515.000000,0.085339,-0.010980,0.989054,-0.007625,0.030261,0.418745,0.907568,0.121186
1636030845132116.000000,0.093757,-0.006527,0.986431,-0.007625,0.030261,0.418745,0.907568,0.132753
1636030845141721.000000,0.040199,-0.005673,1.018944,-0.007625,0.030261,0.418745,0.907568,0.057132
1636030845151445.000000,0.019215,-0.007442,1.028948,-0.007625,0.030261,0.418745,0.907568,0.028175
1636030845161038.000000,-0.001098,-0.009150,1.034560,-0.007625,0.030261,0.418745,0.907568,0.009281
1636030845170755.000000,-0.035929,-0.010919,1.048895,-0.007625,0.030261,0.418745,0.907568,0.051971
1636030845180338.000000,-0.045140,-0.011102,1.050908,-0.007625,0.030261,0.418745,0.907568,0.064796
1636030845189914.000000,-0.011102,-0.009760,1.032181,-0.007625,0.030261,0.418745,0.907568,0.018487
1636030845199637.000000,-0.027511,-0.008479,1.033706,-0.007625,0.030261,0.418745,0.907568,0.039820
1636030845209243.000000,-0.026047,-0.011285,1.034560,-0.007625,0.030261,0.418745,0.907568,0.038526
1636030845218831.000000,-0.001525,-0.012200,1.025715,-0.007625,0.030261,0.418745,0.907568,0.012389
1636030845228546.000000,-0.013725,-0.013115,1.026691,-0.007625,0.030261,0.418745,0.907568,0.023426
1636030845238125.000000,-0.009455,-0.014030,1.025166,-0.007625,0.030261,0.418745,0.907568,0.019381
1636030845247724.000000,-0.008113,-0.012688,1.023641,-0.007625,0.030261,0.418745,0.907568,0.017106
1636030845257435.000000,-0.008906,-0.012627,1.025654,-0.007625,0.030261,0.418745,0.907568,0.017835
1636030845267019.000000,-0.007686,-0.011773,1.026142,-0.007625,0.030261,0.418745,0.907568,0.016024
1636030845276741.000000,-0.007137,-0.010736,1.024556,-0.007625,0.030261,0.418745,0.907568,0.014736
1636030845286329.000000,-0.006161,-0.010492,1.025471,-0.007625,0.030261,0.418745,0.907568,0.013638
1636030845295922.000000,-0.006283,-0.011712,1.026813,-0.007625,0.030261,0.418745,0.907568,0.014701
1636030845305642.000000,-0.008052,-0.012261,1.026569,-0.007625,0.030261,0.418745,0.907568,0.016733
1636030845315216.000000,-0.008235,-0.011346,1.025837,-0.007625,0.030261,0.418745,0.907568,0.016259
1636030845324805.000000,-0.006588,-0.009760,1.025898,-0.007625,0.030261,0.418745,0.907568,0.013493
1636030845334517.000000,-0.006222,-0.009272,1.027911,-0.007625,0.030261,0.418745,0.907568,0.012783
1636030845344115.000000,-0.002135,-0.006649,1.032181,-0.007625,0.030261,0.418745,0.907568,0.007302
1636030845353830.000000,-0.013786,-0.013481,1.024617,-0.007625,0.030261,0.418745,0.907568,0.023703
1636030845363372.000000,-0.025742,-0.021045,1.017175,-0.007625,0.030261,0.418745,0.907568,0.042050
1636030845372984.000000,-0.014457,-0.014884,1.024068,-0.007625,0.030261,0.418745,0.907568,0.025289
1636030845382626.000000,-0.010919,-0.012871,1.027850,-0.007625,0.030261,0.418745,0.907568,0.020103
1636030845392264.000000,-0.013969,-0.014457,1.026203,-0.007625,0.030261,0.418745,0.907568,0.024480
1636030845401910.000000,-0.012749,-0.015555,1.023641,-0.007625,0.030261,0.418745,0.907568,0.023812
1636030845411571.000000,-0.012261,-0.014701,1.023031,-0.007625,0.030261,0.418745,0.907568,0.022733
1636030845421216.000000,-0.003050,-0.006344,1.029436,-0.007625,0.030261,0.418745,0.907568,0.007671
1636030845430854.000000,-0.002440,-0.006954,1.029070,-0.007625,0.030261,0.418745,0.907568,0.007763
1636030845440496.000000,-0.010797,-0.013359,1.023397,-0.007625,0.030261,0.418745,0.907568,0.020288
1636030845450156.000000,-0.008906,-0.012200,1.025105,-0.007625,0.030261,0.418745,0.907568,0.017535
1636030845459792.000000,-0.009150,-0.011895,1.027423,-0.007625,0.030261,0.418745,0.907568,0.017577
1636030845469347.000000,-0.008357,-0.011773,1.028216,-0.007625,0.030261,0.418745,0.907568,0.016682
1636030845479102.000000,-0.006100,-0.010065,1.028277,-0.007625,0.030261,0.418745,0.907568,0.013256
1636030845488669.000000,-0.011102,-0.013298,1.025288,-0.007625,0.030261,0.418745,0.907568,0.020575
1636030845498266.000000,-0.015006,-0.016409,1.023519,-0.007625,0.030261,0.418745,0.907568,0.026826
1636030845507993.000000,-0.010919,-0.012993,1.026020,-0.007625,0.030261,0.418745,0.907568,0.020181
1636030845517616.000000,-0.009577,-0.011712,1.025837,-0.007625,0.030261,0.418745,0.907568,0.017906
1636030845527217.000000,-0.011529,-0.013664,1.025105,-0.007625,0.030261,0.418745,0.907568,0.021273
1636030845536837.000000,-0.010004,-0.012810,1.026569,-0.007625,0.030261,0.418745,0.907568,0.019085
1636030845546455.000000,-0.005063,-0.009211,1.029924,-0.007625,0.030261,0.418745,0.907568,0.011667
1636030845556076.000000,-0.006832,-0.009760,1.029741,-0.007625,0.030261,0.418745,0.907568,0.013734
1636030845565701.000000,-0.014335,-0.014335,1.025044,-0.007625,0.030261,0.418745,0.907568,0.024829
1636030845575451.000000,-0.014945,-0.015189,1.023824,-0.007625,0.030261,0.418745,0.907568,0.026027
1636030845585067.000000,-0.012749,-0.014518,1.024129,-0.007625,0.030261,0.418745,0.907568,0.023148
1636030845594626.000000,-0.011956,-0.015189,1.023946,-0.007625,0.030261,0.418745,0.907568,0.022729
1636030845606465.000000,-0.011956,-0.015311,1.024434,-0.007625,0.030261,0.418745,0.907568,0.022810
1636030845613978.000000,-0.012261,-0.014945,1.024922,-0.007625,0.030261,0.418745,0.907568,0.022891
1636030845623562.000000,-0.011956,-0.014457,1.024678,-0.007625,0.030261,0.418745,0.907568,0.022246
1636030845633605.000000,-0.011285,-0.014213,1.024068,-0.007625,0.030261,0.418745,0.907568,0.021371
1636030845642797.000000,-0.010980,-0.014457,1.024434,-0.007625,0.030261,0.418745,0.907568,0.021216
1636030845652464.000000,-0.011468,-0.014274,1.025349,-0.007625,0.030261,0.418745,0.907568,0.021605
1636030845662150.000000,-0.024583,-0.026352,1.012173,-0.007625,0.030261,0.418745,0.907568,0.043624
1636030845671806.000000,-0.010980,-0.011346,1.026325,-0.007625,0.030261,0.418745,0.907568,0.019232
1636030845681336.000000,-0.004636,-0.004819,1.035780,-0.007625,0.030261,0.418745,0.907568,0.008137
1636030845691015.000000,-0.022997,-0.021838,1.020042,-0.007625,0.030261,0.418745,0.907568,0.039174
1636030845700718.000000,-0.000732,-0.006527,1.030961,-0.007625,0.030261,0.418745,0.907568,0.006609
1636030845710337.000000,0.001525,-0.005734,1.032791,-0.007625,0.030261,0.418745,0.907568,0.006126
1636030845720011.000000,-0.010614,-0.012444,1.027606,-0.007625,0.030261,0.418745,0.907568,0.019498
1636030845729683.000000,-0.010065,-0.011407,1.026386,-0.007625,0.030261,0.418745,0.907568,0.018241
1636030845739218.000000,-0.014762,-0.013481,1.025837,-0.007625,0.030261,0.418745,0.907568,0.024851
1636030845748844.000000,-0.011285,-0.010370,1.028521,-0.007625,0.030261,0.418745,0.907568,0.019033
1636030845758515.000000,-0.019703,-0.007991,1.034865,-0.007625,0.030261,0.418745,0.907568,0.028987
1636030845768130.000000,-0.040382,-0.012078,1.042612,-0.007625,0.030261,0.418745,0.907568,0.058372
1636030845777792.000000,-0.029280,-0.014762,1.037854,-0.007625,0.030261,0.418745,0.907568,0.043961
1636030845787444.000000,0.000976,-0.011834,1.026264,-0.007625,0.030261,0.418745,0.907568,0.011914
1636030845797028.000000,0.015189,-0.010126,1.018395,-0.007625,0.030261,0.418745,0.907568,0.023748
1636030845806707.000000,0.023119,-0.010492,1.014613,-0.007625,0.030261,0.418745,0.907568,0.034337
1636030845816332.000000,0.029280,-0.010919,1.012966,-0.007625,0.030261,0.418745,0.907568,0.042824
1636030845825923.000000,0.031232,-0.010187,1.013271,-0.007625,0.030261,0.418745,0.907568,0.045328
1636030845835656.000000,0.027084,-0.009943,1.015650,-0.007625,0.030261,0.418745,0.907568,0.039572
1636030845845251.000000,0.020618,-0.009882,1.019066,-0.007625,0.030261,0.418745,0.907568,0.030787
1636030845854823.000000,0.013237,-0.009943,1.022970,-0.007625,0.030261,0.418745,0.907568,0.021197
1636030845864586.000000,0.002562,-0.010248,1.027789,-0.007625,0.030261,0.418745,0.907568,0.010870
1636030845874193.000000,-0.008357,-0.010919,1.032669,-0.007625,0.030261,0.418745,0.907568,0.016090
1636030845883788.000000,-0.012993,-0.011529,1.034133,-0.007625,0.030261,0.418745,0.907568,0.021692
1636030845893400.000000,-0.010736,-0.011712,1.033035,-0.007625,0.030261,0.418745,0.907568,0.019175
1636030845903005.000000,-0.005307,-0.011102,1.030900,-0.007625,0.030261,0.418745,0.907568,0.013401
1636030845912749.000000,0.001464,-0.010126,1.027484,-0.007625,0.030261,0.418745,0.907568,0.010335
1636030845922352.000000,0.009882,-0.009699,1.023092,-0.007625,0.030261,0.418745,0.907568,0.017011
1636030845931996.000000,0.016287,-0.009577,1.020286,-0.007625,0.030261,0.418745,0.907568,0.024945
1636030845941624.000000,0.017324,-0.009760,1.019920,-0.007625,0.030261,0.418745,0.907568,0.026372
1636030845951243.000000,0.014701,-0.010065,1.021018,-0.007625,0.030261,0.418745,0.907568,0.023099
1636030845960868.000000,0.010431,-0.010004,1.023519,-0.007625,0.030261,0.418745,0.907568,0.017824
1636030845970482.000000,0.005063,-0.010309,1.026386,-0.007625,0.030261,0.418745,0.907568,0.012552
1636030845980098.000000,-0.001525,-0.010431,1.029253,-0.007625,0.030261,0.418745,0.907568,0.010652
1636030845989705.000000,-0.006527,-0.010492,1.031327,-0.007625,0.030261,0.418745,0.907568,0.013974
1636030845999451.000000,-0.006649,-0.011102,1.031388,-0.007625,0.030261,0.418745,0.907568,0.014549
1636030846009039.000000,-0.002745,-0.010980,1.029558,-0.007625,0.030261,0.418745,0.907568,0.011646
1636030846018641.000000,0.001891,-0.010980,1.026813,-0.007625,0.030261,0.418745,0.907568,0.011301
1636030846028360.000000,0.007320,-0.011529,1.024129,-0.007625,0.030261,0.418745,0.907568,0.015495
1636030846037938.000000,0.012810,-0.011224,1.021933,-0.007625,0.030261,0.418745,0.907568,0.021311
1636030846047568.000000,0.014823,-0.010736,1.021018,-0.007625,0.030261,0.418745,0.907568,0.023552
1636030846057180.000000,0.014274,-0.010919,1.021323,-0.007625,0.030261,0.418745,0.907568,0.022950
1636030846066933.000000,0.011773,-0.010858,1.022482,-0.007625,0.030261,0.418745,0.907568,0.019877
1636030846076505.000000,0.007564,-0.010675,1.024922,-0.007625,0.030261,0.418745,0.907568,0.015112
1636030846086081.000000,0.002745,-0.010614,1.026996,-0.007625,0.030261,0.418745,0.907568,0.011302
1636030846095705.000000,-0.000793,-0.010614,1.028155,-0.007625,0.030261,0.418745,0.907568,0.010673
1636030846105428.000000,-0.001830,-0.010431,1.029070,-0.007625,0.030261,0.418745,0.907568,0.010747
1636030846115001.000000,-0.000915,-0.010309,1.029375,-0.007625,0.030261,0.418745,0.907568,0.010390
1636030846124746.000000,0.001647,-0.010065,1.028582,-0.007625,0.030261,0.418745,0.907568,0.010331
1636030846134326.000000,0.004697,-0.009089,1.026874,-0.007625,0.030261,0.418745,0.907568,0.011258
1636030846143891.000000,0.008052,-0.008784,1.025349,-0.007625,0.030261,0.418745,0.907568,0.014382
1636030846153649.000000,0.013359,-0.008967,1.022177,-0.007625,0.030261,0.418745,0.907568,0.020913
1636030846163272.000000,0.018178,-0.009028,1.019188,-0.007625,0.030261,0.418745,0.907568,0.027247
1636030846172871.000000,0.016287,-0.009516,1.019920,-0.007625,0.030261,0.418745,0.907568,0.024922
1636030846182481.000000,0.007320,-0.010065,1.023885,-0.007625,0.030261,0.418745,0.907568,0.014438
1636030846192236.000000,-0.003050,-0.010980,1.028094,-0.007625,0.030261,0.418745,0.907568,0.011797
1636030846201855.000000,-0.010797,-0.012078,1.030778,-0.007625,0.030261,0.418745,0.907568,0.019469
1636030846211461.000000,-0.013237,-0.012444,1.030595,-0.007625,0.030261,0.418745,0.907568,0.022479
1636030846221042.000000,-0.010187,-0.012078,1.029192,-0.007625,0.030261,0.418745,0.907568,0.018800
1636030846230631.000000,-0.003782,-0.011529,1.027545,-0.007625,0.030261,0.418745,0.907568,0.012709
1636030846240370.000000,0.003660,-0.011102,1.024434,-0.007625,0.030261,0.418745,0.907568,0.012249
1636030846249956.000000,0.008967,-0.010248,1.021567,-0.007625,0.030261,0.418745,0.907568,0.016304
1636030846259623.000000,0.009211,-0.009821,1.021079,-0.007625,0.030261,0.418745,0.907568,0.016314
1636030846269233.000000,0.009760,-0.010248,1.019676,-0.007625,0.030261,0.418745,0.907568,0.017191
1636030846278838.000000,0.017019,-0.009577,1.015711,-0.007625,0.030261,0.418745,0.907568,0.025904
1636030846288431.000000,0.011346,-0.009760,1.020164,-0.007625,0.030261,0.418745,0.907568,0.018781
1636030846298191.000000,-0.006649,-0.010675,1.028887,-0.007625,0.030261,0.418745,0.907568,0.014226
1636030846307781.000000,-0.015616,-0.010370,1.032303,-0.007625,0.030261,0.418745,0.907568,0.024398
1636030846317371.000000,-0.016897,-0.010431,1.032364,-0.007625,0.030261,0.418745,0.907568,0.026073
1636030846327103.000000,-0.019154,-0.010675,1.032364,-0.007625,0.030261,0.418745,0.907568,0.029115
1636030846336708.000000,-0.012627,-0.009455,1.029253,-0.007625,0.030261,0.418745,0.907568,0.020206
1636030846346310.000000,-0.009028,-0.008601,1.025532,-0.007625,0.030261,0.418745,0.907568,0.015394
1636030846355949.000000,-0.008723,-0.011834,1.026752,-0.007625,0.030261,0.418745,0.907568,0.017095
1636030846365528.000000,-0.003599,-0.012383,1.027484,-0.007625,0.030261,0.418745,0.907568,0.013388
1636030846375244.000000,-0.006893,-0.011590,1.026447,-0.007625,0.030261,0.418745,0.907568,0.015144
1636030846384815.000000,-0.008235,-0.013115,1.025166,-0.007625,0.030261,0.418745,0.907568,0.017539
1636030846394553.000000,-0.006161,-0.012017,1.024739,-0.007625,0.030261,0.418745,0.907568,0.014843
1636030846404127.000000,-0.007320,-0.011346,1.024739,-0.007625,0.030261,0.418745,0.907568,0.015359
1636030846413739.000000,-0.008845,-0.011346,1.025044,-0.007625,0.030261,0.418745,0.907568,0.016888
1636030846423482.000000,-0.009821,-0.011590,1.023397,-0.007625,0.030261,0.418745,0.907568,0.018090
1636030846433067.000000,-0.009760,-0.012505,1.023519,-0.007625,0.030261,0.418745,0.907568,0.018625
1636030846442662.000000,-0.008967,-0.012749,1.025410,-0.007625,0.030261,0.418745,0.907568,0.017982
1636030846452380.000000,-0.009394,-0.012444,1.025654,-0.007625,0.030261,0.418745,0.907568,0.018203
1636030846461939.000000,-0.008967,-0.011590,1.025227,-0.007625,0.030261,0.418745,0.907568,0.017180
1636030846471655.000000,-0.008967,-0.011285,1.024861,-0.007625,0.030261,0.418745,0.907568,0.016975
1636030846481221.000000,-0.009638,-0.011529,1.026447,-0.007625,0.030261,0.418745,0.907568,0.017852
1636030846490792.000000,-0.009638,-0.011041,1.027240,-0.007625,0.030261,0.418745,0.907568,0.017541
1636030846500517.000000,-0.009211,-0.010675,1.026264,-0.007625,0.030261,0.418745,0.907568,0.016842
1636030846510073.000000,-0.008967,-0.010492,1.026691,-0.007625,0.030261,0.418745,0.907568,0.016459
1636030846519783.000000,-0.008784,-0.010492,1.027301,-0.007625,0.030261,0.418745,0.907568,0.016260
1636030846529355.000000,-0.008662,-0.010797,1.026447,-0.007625,0.030261,0.418745,0.907568,0.016329
1636030846539067.000000,-0.008601,-0.010675,1.025654,-0.007625,0.030261,0.418745,0.907568,0.016184
1636030846548631.000000,-0.008601,-0.011224,1.026020,-0.007625,0.030261,0.418745,0.907568,0.016551
1636030846558361.000000,-0.006527,-0.012932,1.024495,-0.007625,0.030261,0.418745,0.907568,0.015888
1636030846567964.000000,-0.008784,-0.011529,1.027484,-0.007625,0.030261,0.418745,0.907568,0.016948
1636030846577601.000000,-0.010248,-0.010248,1.028826,-0.007625,0.030261,0.418745,0.907568,0.017750
1636030846587194.000000,-0.007686,-0.011529,1.025715,-0.007625,0.030261,0.418745,0.907568,0.015845
1636030846596795.000000,-0.008479,-0.011651,1.026081,-0.007625,0.030261,0.418745,0.907568,0.016719
1636030846606528.000000,-0.007625,-0.011590,1.025410,-0.007625,0.030261,0.418745,0.907568,0.015831
1636030846616106.000000,-0.004941,-0.009150,1.027545,-0.007625,0.030261,0.418745,0.907568,0.011513
1636030846625703.000000,-0.008479,-0.011346,1.026935,-0.007625,0.030261,0.418745,0.907568,0.016508
1636030846635439.000000,-0.014884,-0.016226,1.023397,-0.007625,0.030261,0.418745,0.907568,0.026577
1636030846645020.000000,-0.025498,-0.013908,1.021262,-0.007625,0.030261,0.418745,0.907568,0.038649
1636030846654623.000000,-0.011651,-0.013847,1.025166,-0.007625,0.030261,0.418745,0.907568,0.021523
1636030846664357.000000,-0.002074,-0.014762,1.027423,-0.007625,0.030261,0.418745,0.907568,0.015051
1636030846673953.000000,-0.014823,-0.014213,1.023824,-0.007625,0.030261,0.418745,0.907568,0.025327
1636030846683551.000000,-0.012688,-0.013908,1.025044,-0.007625,0.030261,0.418745,0.907568,0.022702
1636030846693179.000000,-0.013115,-0.013481,1.025654,-0.007625,0.030261,0.418745,0.907568,0.022929
1636030846702777.000000,-0.013847,-0.014579,1.024251,-0.007625,0.030261,0.418745,0.907568,0.024414
1636030846712557.000000,-0.013847,-0.014518,1.024739,-0.007625,0.030261,0.418745,0.907568,0.024377
1636030846722144.000000,-0.013969,-0.013969,1.026020,-0.007625,0.030261,0.418745,0.907568,0.024195
1636030846731801.000000,-0.013969,-0.013664,1.027179,-0.007625,0.030261,0.418745,0.907568,0.024020
1636030846741403.000000,-0.016104,-0.014945,1.026142,-0.007625,0.030261,0.418745,0.907568,0.027240
1636030846750987.000000,-0.017019,-0.015067,1.025227,-0.007625,0.030261,0.418745,0.907568,0.028396
1636030846760732.000000,-0.018239,-0.014274,1.025532,-0.007625,0.030261,0.418745,0.907568,0.029480
1636030846770337.000000,-0.019154,-0.014945,1.024800,-0.007625,0.030261,0.418745,0.907568,0.030937
1636030846779945.000000,-0.004758,-0.007442,1.029802,-0.007625,0.030261,0.418745,0.907568,0.010033
1636030846789531.000000,-0.002196,-0.007381,1.028948,-0.007625,0.030261,0.418745,0.907568,0.008008
1636030846799140.000000,-0.014457,-0.013054,1.023702,-0.007625,0.030261,0.418745,0.907568,0.024257
1636030846808888.000000,-0.021106,-0.014701,1.024068,-0.007625,0.030261,0.418745,0.907568,0.033272
1636030846818469.000000,-0.035075,-0.020252,1.024129,-0.007625,0.030261,0.418745,0.907568,0.053578
1636030846828174.000000,-0.053924,-0.020435,1.024678,-0.007625,0.030261,0.418745,0.907568,0.078951
1636030846837750.000000,-0.061183,-0.019520,1.024373,-0.007625,0.030261,0.418745,0.907568,0.088700
1636030846847456.000000,-0.051423,-0.018666,1.024190,-0.007625,0.030261,0.418745,0.907568,0.075080
1636030846857020.000000,-0.038796,-0.014823,1.024678,-0.007625,0.030261,0.418745,0.907568,0.056833
1636030846866619.000000,-0.027450,-0.012200,1.024739,-0.007625,0.030261,0.418745,0.907568,0.040692
1636030846876324.000000,-0.018483,-0.011468,1.025532,-0.007625,0.030261,0.418745,0.907568,0.028544
1636030846885875.000000,-0.015494,-0.010797,1.026569,-0.007625,0.030261,0.418745,0.907568,0.024428
1636030846895601.000000,-0.020435,-0.013176,1.027301,-0.007625,0.030261,0.418745,0.907568,0.031761
1636030846905175.000000,-0.023241,-0.016348,1.027240,-0.007625,0.030261,0.418745,0.907568,0.036709
1636030846914905.000000,-0.020496,-0.015738,1.027362,-0.007625,0.030261,0.418745,0.907568,0.032983
1636030846924491.000000,-0.018239,-0.012993,1.026264,-0.007625,0.030261,0.418745,0.907568,0.028881
1636030846934039.000000,-0.023058,-0.011407,1.024861,-0.007625,0.030261,0.418745,0.907568,0.034547
1636030846943771.000000,-0.033550,-0.008906,1.025898,-0.007625,0.030261,0.418745,0.907568,0.048275
1636030846953396.000000,-0.045262,-0.007930,1.027057,-0.007625,0.030261,0.418745,0.907568,0.064499
1636030846963068.000000,-0.054290,-0.010431,1.026142,-0.007625,0.030261,0.418745,0.907568,0.077483
1636030846972647.000000,-0.059231,-0.010370,1.024129,-0.007625,0.030261,0.418745,0.907568,0.084405
1636030846982369.000000,-0.068320,-0.011163,1.023946,-0.007625,0.030261,0.418745,0.907568,0.097262
1636030846991949.000000,-0.065453,-0.013847,1.023519,-0.007625,0.030261,0.418745,0.907568,0.093594
1636030847001519.000000,-0.057401,-0.014701,1.023824,-0.007625,0.030261,0.418745,0.907568,0.082498
1636030847011255.000000,-0.065148,-0.012505,1.023946,-0.007625,0.030261,0.418745,0.907568,0.092978
1636030847020865.000000,-0.064904,-0.009089,1.023153,-0.007625,0.030261,0.418745,0.907568,0.092237
1636030847030474.000000,-0.057218,-0.007747,1.024190,-0.007625,0.030261,0.418745,0.907568,0.081288
1636030847040029.000000,-0.064111,-0.002867,1.023702,-0.007625,0.030261,0.418745,0.907568,0.090712
1636030847049759.000000,-0.058316,0.002257,1.025715,-0.007625,0.030261,0.418745,0.907568,0.082502
1636030847059348.000000,-0.048129,0.003416,1.027484,-0.007625,0.030261,0.418745,0.907568,0.068150
1636030847068993.000000,-0.048007,0.004148,1.025593,-0.007625,0.030261,0.418745,0.907568,0.068019
1636030847078591.000000,-0.037027,0.002379,1.025898,-0.007625,0.030261,0.418745,0.907568,0.052418
1636030847088340.000000,-0.033001,-0.001159,1.026752,-0.007625,0.030261,0.418745,0.907568,0.046685
1636030847097955.000000,-0.037210,-0.002562,1.026935,-0.007625,0.030261,0.418745,0.907568,0.052685
1636030847107535.000000,-0.030012,-0.004392,1.026447,-0.007625,0.030261,0.418745,0.907568,0.042670
1636030847117270.000000,-0.017873,-0.007808,1.025044,-0.007625,0.030261,0.418745,0.907568,0.026455
1636030847126851.000000,-0.016958,-0.013603,1.025410,-0.007625,0.030261,0.418745,0.907568,0.027572
1636030847136447.000000,-0.016531,-0.019764,1.025471,-0.007625,0.030261,0.418745,0.907568,0.030613
1636030847146179.000000,-0.011346,-0.017995,1.024434,-0.007625,0.030261,0.418745,0.907568,0.024110
1636030847155771.000000,-0.006527,-0.016592,1.024617,-0.007625,0.030261,0.418745,0.907568,0.018987
1636030847165411.000000,-0.004880,-0.017263,1.024922,-0.007625,0.030261,0.418745,0.907568,0.018591
1636030847174995.000000,-0.003172,-0.017568,1.025776,-0.007625,0.030261,0.418745,0.907568,0.018132
1636030847184580.000000,-0.003233,-0.020923,1.026142,-0.007625,0.030261,0.418745,0.907568,0.021417
1636030847194360.000000,-0.017385,-0.020435,1.024800,-0.007625,0.030261,0.418745,0.907568,0.031970
1636030847203949.000000,-0.025925,-0.015555,1.023824,-0.007625,0.030261,0.418745,0.907568,0.039827
1636030847213532.000000,-0.014884,-0.013786,1.024983,-0.007625,0.030261,0.418745,0.907568,0.025162
1636030847223127.000000,0.006649,-0.017873,1.024861,-0.007625,0.030261,0.418745,0.907568,0.020196
1636030847232850.000000,0.024888,-0.023058,1.024129,-0.007625,0.030261,0.418745,0.907568,0.042077
1636030847242446.000000,0.034221,-0.022997,1.025593,-0.007625,0.030261,0.418745,0.907568,0.053582
1636030847252041.000000,0.039162,-0.019703,1.027057,-0.007625,0.030261,0.418745,0.907568,0.058784
1636030847261766.000000,0.037271,-0.017141,1.026813,-0.007625,0.030261,0.418745,0.907568,0.055426
1636030847271351.000000,0.023912,-0.014457,1.026447,-0.007625,0.030261,0.418745,0.907568,0.036777
1636030847280938.000000,0.015372,-0.013420,1.026569,-0.007625,0.030261,0.418745,0.907568,0.025548
1636030847290667.000000,0.022692,-0.012627,1.027423,-0.007625,0.030261,0.418745,0.907568,0.034486
1636030847300277.000000,0.028060,-0.008845,1.027057,-0.007625,0.030261,0.418745,0.907568,0.040657
1636030847309900.000000,0.030195,-0.004392,1.026081,-0.007625,0.030261,0.418745,0.907568,0.042927
1636030847319502.000000,0.036539,-0.002013,1.026447,-0.007625,0.030261,0.418745,0.907568,0.051713
1636030847329233.000000,0.044652,-0.001830,1.026508,-0.007625,0.030261,0.418745,0.907568,0.063174
1636030847338830.000000,0.051789,-0.002989,1.026325,-0.007625,0.030261,0.418745,0.907568,0.073302
1636030847348417.000000,0.056364,-0.004148,1.026203,-0.007625,0.030261,0.418745,0.907568,0.079819
1636030847358169.000000,0.065880,-0.006649,1.026081,-0.007625,0.030261,0.418745,0.907568,0.093405
1636030847367757.000000,0.072590,-0.009150,1.026508,-0.007625,0.030261,0.418745,0.907568,0.103065
1636030847377392.000000,0.073810,-0.010614,1.025654,-0.007625,0.030261,0.418745,0.907568,0.104921
1636030847386985.000000,0.078934,-0.011834,1.025105,-0.007625,0.030261,0.418745,0.907568,0.112255
1636030847396587.000000,0.080459,-0.011712,1.025471,-0.007625,0.030261,0.418745,0.907568,0.114387
1636030847406303.000000,0.075884,-0.011651,1.025410,-0.007625,0.030261,0.418745,0.907568,0.107947
1636030847415908.000000,0.061427,-0.011041,1.025044,-0.007625,0.030261,0.418745,0.907568,0.087570
1636030847425513.000000,0.038674,-0.009211,1.025593,-0.007625,0.030261,0.418745,0.907568,0.055463
1636030847435115.000000,0.021167,-0.008723,1.026874,-0.007625,0.030261,0.418745,0.907568,0.031180
1636030847444857.000000,0.008540,-0.010065,1.027484,-0.007625,0.030261,0.418745,0.907568,0.015722
1636030847454464.000000,-0.002379,-0.011651,1.027545,-0.007625,0.030261,0.418745,0.907568,0.012127
1636030847464086.000000,-0.007991,-0.011834,1.026935,-0.007625,0.030261,0.418745,0.907568,0.016363
1636030847473678.000000,-0.009760,-0.012017,1.026935,-0.007625,0.030261,0.418745,0.907568,0.018301
1636030847483440.000000,-0.009760,-0.012322,1.026264,-0.007625,0.030261,0.418745,0.907568,0.018503
1636030847493049.000000,-0.009882,-0.011956,1.025715,-0.007625,0.030261,0.418745,0.907568,0.018392
1636030847502672.000000,-0.004575,-0.007747,1.027057,-0.007625,0.030261,0.418745,0.907568,0.010093
1636030847512290.000000,-0.008845,-0.012261,1.025532,-0.007625,0.030261,0.418745,0.907568,0.017516
1636030847521928.000000,-0.014396,-0.016653,1.024800,-0.007625,0.030261,0.418745,0.907568,0.026302
1636030847531541.000000,-0.006771,-0.010309,1.025776,-0.007625,0.030261,0.418745,0.907568,0.014070
1636030847541152.000000,-0.005734,-0.010065,1.024739,-0.007625,0.030261,0.418745,0.907568,0.012925
1636030847550904.000000,-0.008174,-0.012505,1.025166,-0.007625,0.030261,0.418745,0.907568,0.017029
1636030847560514.000000,-0.008113,-0.012261,1.025532,-0.007625,0.030261,0.418745,0.907568,0.016792
1636030847570113.000000,-0.007503,-0.011956,1.025715,-0.007625,0.030261,0.418745,0.907568,0.015985
1636030847579727.000000,-0.007625,-0.012322,1.025959,-0.007625,0.030261,0.418745,0.907568,0.016374
1636030847589344.000000,-0.007503,-0.012078,1.025776,-0.007625,0.030261,0.418745,0.907568,0.016077
1636030847598949.000000,-0.011956,-0.011834,1.024495,-0.007625,0.030261,0.418745,0.907568,0.020638
1636030847608697.000000,-0.006161,-0.012078,1.025288,-0.007625,0.030261,0.418745,0.907568,0.014893
1636030847618334.000000,-0.001769,-0.012444,1.025044,-0.007625,0.030261,0.418745,0.907568,0.012693
1636030847627954.000000,-0.007991,-0.011773,1.025288,-0.007625,0.030261,0.418745,0.907568,0.016319
1636030847637545.000000,-0.007015,-0.011285,1.026020,-0.007625,0.030261,0.418745,0.907568,0.015026
1636030847647129.000000,-0.007869,-0.012017,1.024617,-0.007625,0.030261,0.418745,0.907568,0.016378
1636030847656863.000000,-0.008723,-0.011834,1.025288,-0.007625,0.030261,0.418745,0.907568,0.017095
1636030847666455.000000,-0.007869,-0.011163,1.025349,-0.007625,0.030261,0.418745,0.907568,0.015762
1636030847676092.000000,-0.007686,-0.011041,1.025959,-0.007625,0.030261,0.418745,0.907568,0.015494
1636030847685680.000000,-0.007564,-0.011041,1.026691,-0.007625,0.030261,0.418745,0.907568,0.015373
1636030847695425.000000,-0.007625,-0.011346,1.026691,-0.007625,0.030261,0.418745,0.907568,0.015653
1636030847705028.000000,-0.007320,-0.011102,1.026569,-0.007625,0.030261,0.418745,0.907568,0.015180
1636030847714619.000000,-0.007442,-0.010126,1.026630,-0.007625,0.030261,0.418745,0.907568,0.014605
1636030847724223.000000,-0.007747,-0.010431,1.026081,-0.007625,0.030261,0.418745,0.907568,0.015127
1636030847733958.000000,-0.008052,-0.011407,1.025654,-0.007625,0.030261,0.418745,0.907568,0.016118
1636030847743544.000000,-0.008235,-0.011163,1.026081,-0.007625,0.030261,0.418745,0.907568,0.016132
1636030847753210.000000,-0.007747,-0.011346,1.026203,-0.007625,0.030261,0.418745,0.907568,0.015772
1636030847762841.000000,-0.007686,-0.012017,1.025959,-0.007625,0.030261,0.418745,0.907568,0.016204
1636030847772439.000000,-0.007869,-0.012322,1.025227,-0.007625,0.030261,0.418745,0.907568,0.016603
1636030847782040.000000,-0.007869,-0.012383,1.025044,-0.007625,0.030261,0.418745,0.907568,0.016649
1636030847791777.000000,-0.007930,-0.012810,1.024800,-0.007625,0.030261,0.418745,0.907568,0.017025
1636030847801389.000000,-0.007991,-0.012871,1.024434,-0.007625,0.030261,0.418745,0.907568,0.017128
1636030847810972.000000,-0.007869,-0.012871,1.024007,-0.007625,0.030261,0.418745,0.907568,0.017015
1636030847820567.000000,-0.007686,-0.012932,1.024434,-0.007625,0.030261,0.418745,0.907568,0.016893
1636030847830200.000000,-0.008052,-0.012688,1.025654,-0.007625,0.030261,0.418745,0.907568,0.017049
1636030847839945.000000,-0.008540,-0.012444,1.026569,-0.007625,0.030261,0.418745,0.907568,0.017341
1636030847849524.000000,-0.008662,-0.011590,1.026996,-0.007625,0.030261,0.418745,0.907568,0.016864
1636030847859118.000000,-0.008906,-0.011224,1.027240,-0.007625,0.030261,0.418745,0.907568,0.016870
1636030847868892.000000,-0.009150,-0.011407,1.027423,-0.007625,0.030261,0.418745,0.907568,0.017250
1636030847878504.000000,-0.008296,-0.010858,1.027179,-0.007625,0.030261,0.418745,0.907568,0.015986
1636030847888104.000000,-0.008235,-0.010797,1.027118,-0.007625,0.030261,0.418745,0.907568,0.015881
1636030847897744.000000,-0.008662,-0.010980,1.026752,-0.007625,0.030261,0.418745,0.907568,0.016451
1636030847907342.000000,-0.007503,-0.011529,1.026508,-0.007625,0.030261,0.418745,0.907568,0.015669
1636030847916919.000000,-0.007381,-0.011956,1.026630,-0.007625,0.030261,0.418745,0.907568,0.015871
1636030847926656.000000,-0.008113,-0.011407,1.025898,-0.007625,0.030261,0.418745,0.907568,0.016179
1636030847936274.000000,-0.008357,-0.011712,1.025044,-0.007625,0.030261,0.418745,0.907568,0.016639
1636030847945850.000000,-0.008967,-0.012200,1.024678,-0.007625,0.030261,0.418745,0.907568,0.017597
1636030847955598.000000,-0.009028,-0.012200,1.024556,-0.007625,0.030261,0.418745,0.907568,0.017659
1636030847965185.000000,-0.008601,-0.012078,1.024556,-0.007625,0.030261,0.418745,0.907568,0.017142
1636030847974771.000000,-0.008296,-0.012444,1.024739,-0.007625,0.030261,0.418745,0.907568,0.017103
1636030847984507.000000,-0.008418,-0.012688,1.024861,-0.007625,0.030261,0.418745,0.907568,0.017399
1636030847994101.000000,-0.008174,-0.012200,1.024983,-0.007625,0.030261,0.418745,0.907568,0.016807
1636030848003702.000000,-0.007808,-0.012017,1.025044,-0.007625,0.030261,0.418745,0.907568,0.016320
1636030848013298.000000,-0.007747,-0.012017,1.024922,-0.007625,0.030261,0.418745,0.907568,0.016262
1636030848023050.000000,-0.008296,-0.012200,1.025166,-0.007625,0.030261,0.418745,0.907568,0.016926
1636030848032637.000000,-0.008540,-0.012383,1.025654,-0.007625,0.030261,0.418745,0.907568,0.017297
1636030848042251.000000,-0.008174,-0.011712,1.026325,-0.007625,0.030261,0.418745,0.907568,0.016456
1636030848051843.000000,-0.008235,-0.011224,1.026691,-0.007625,0.030261,0.418745,0.907568,0.016174
1636030848061462.000000,-0.008479,-0.010797,1.027301,-0.007625,0.030261,0.418745,0.907568,0.016136
1636030848071205.000000,-0.008601,-0.010248,1.026508,-0.007625,0.030261,0.418745,0.907568,0.015905
1636030848080793.000000,-0.008418,-0.010248,1.025593,-0.007625,0.030261,0.418745,0.907568,0.015708
1636030848090422.000000,-0.008479,-0.010980,1.025654,-0.007625,0.030261,0.418745,0.907568,0.016259
1636030848100041.000000,-0.008845,-0.012139,1.025776,-0.007625,0.030261,0.418745,0.907568,0.017431
1636030848109648.000000,-0.008662,-0.012139,1.025837,-0.007625,0.030261,0.418745,0.907568,0.017246
1636030848119404.000000,-0.008357,-0.011651,1.025288,-0.007625,0.030261,0.418745,0.907568,0.016596
1636030848128990.000000,-0.008052,-0.011712,1.025105,-0.007625,0.030261,0.418745,0.907568,0.016335
1636030848138599.000000,-0.007747,-0.011285,1.025715,-0.007625,0.030261,0.418745,0.907568,0.015728
1636030848148229.000000,-0.008418,-0.010736,1.025410,-0.007625,0.030261,0.418745,0.907568,0.016031
1636030848157840.000000,-0.008479,-0.011285,1.024739,-0.007625,0.030261,0.418745,0.907568,0.016466
1636030848167584.000000,-0.008052,-0.011956,1.024678,-0.007625,0.030261,0.418745,0.907568,0.016511
1636030848177168.000000,-0.007747,-0.012322,1.024678,-0.007625,0.030261,0.418745,0.907568,0.016488
1636030848186757.000000,-0.007808,-0.012688,1.025166,-0.007625,0.030261,0.418745,0.907568,0.016820
1636030848196487.000000,-0.008052,-0.012444,1.025105,-0.007625,0.030261,0.418745,0.907568,0.016868
1636030848206076.000000,-0.007442,-0.012444,1.024678,-0.007625,0.030261,0.418745,0.907568,0.016298
1636030848215721.000000,-0.007686,-0.012566,1.024495,-0.007625,0.030261,0.418745,0.907568,0.016615
1636030848225311.000000,-0.008418,-0.012078,1.024922,-0.007625,0.030261,0.418745,0.907568,0.016959
1636030848235049.000000,-0.007930,-0.011712,1.025898,-0.007625,0.030261,0.418745,0.907568,0.016215
1636030848244650.000000,-0.008784,-0.011285,1.025532,-0.007625,0.030261,0.418745,0.907568,0.016783
1636030848254246.000000,-0.009943,-0.010858,1.025837,-0.007625,0.030261,0.418745,0.907568,0.017766
1636030848263831.000000,-0.009272,-0.011102,1.026569,-0.007625,0.030261,0.418745,0.907568,0.017181
1636030848273592.000000,-0.009028,-0.011468,1.025776,-0.007625,0.030261,0.418745,0.907568,0.017162
1636030848283219.000000,-0.009516,-0.011773,1.025410,-0.007625,0.030261,0.418745,0.907568,0.017880
1636030848292846.000000,-0.009150,-0.011407,1.025471,-0.007625,0.030261,0.418745,0.907568,0.017250
1636030848302520.000000,-0.009699,-0.010431,1.025898,-0.007625,0.030261,0.418745,0.907568,0.017232
1636030848312018.000000,-0.027938,-0.011834,1.025715,-0.007625,0.030261,0.418745,0.907568,0.041244
1636030848321661.000000,-0.027084,0.003965,1.026813,-0.007625,0.030261,0.418745,0.907568,0.038507
1636030848331317.000000,0.002867,0.020130,1.026081,-0.007625,0.030261,0.418745,0.907568,0.020534
1636030848340950.000000,0.011956,0.011834,1.024434,-0.007625,0.030261,0.418745,0.907568,0.020638
1636030848350614.000000,0.008479,0.004148,1.025471,-0.007625,0.030261,0.418745,0.907568,0.012688
1636030848360242.000000,0.006710,-0.001037,1.024678,-0.007625,0.030261,0.418745,0.907568,0.009546
1636030848369926.000000,0.005978,-0.005673,1.024312,-0.007625,0.030261,0.418745,0.907568,0.010181
1636030848379547.000000,0.003355,-0.008540,1.025593,-0.007625,0.030261,0.418745,0.907568,0.009770
1636030848389212.000000,-0.003721,-0.014945,1.025471,-0.007625,0.030261,0.418745,0.907568,0.015844
1636030848398835.000000,-0.007991,-0.016531,1.025288,-0.007625,0.030261,0.418745,0.907568,0.020025
1636030848408448.000000,0.000854,-0.007564,1.026325,-0.007625,0.030261,0.418745,0.907568,0.007660
1636030848418023.000000,0.015067,0.003538,1.024617,-0.007625,0.030261,0.418745,0.907568,0.021600
1636030848427757.000000,0.022997,0.008601,1.022909,-0.007625,0.030261,0.418745,0.907568,0.033641
1636030848437352.000000,0.030561,0.012017,1.025776,-0.007625,0.030261,0.418745,0.907568,0.044859
1636030848446932.000000,0.028060,0.008113,1.027362,-0.007625,0.030261,0.418745,0.907568,0.040504
1636030848456675.000000,0.015738,-0.001891,1.027850,-0.007625,0.030261,0.418745,0.907568,0.022337
1636030848466277.000000,-0.020496,-0.023912,1.034438,-0.007625,0.030261,0.418745,0.907568,0.037576
1636030848475887.000000,-0.002562,-0.008784,1.022299,-0.007625,0.030261,0.418745,0.907568,0.009502
1636030848485482.000000,0.046177,0.023302,1.017419,-0.007625,0.030261,0.418745,0.907568,0.069337
1636030848495228.000000,0.019337,0.002989,1.029680,-0.007625,0.030261,0.418745,0.907568,0.027510
1636030848504832.000000,-0.003416,-0.014884,1.027179,-0.007625,0.030261,0.418745,0.907568,0.015648
1636030848514423.000000,0.004575,-0.011163,1.025532,-0.007625,0.030261,0.418745,0.907568,0.012902
1636030848524036.000000,0.000671,-0.016653,1.025288,-0.007625,0.030261,0.418745,0.907568,0.016680
1636030848533633.000000,-0.014518,-0.026657,1.025593,-0.007625,0.030261,0.418745,0.907568,0.033647
1636030848543376.000000,-0.017507,-0.024827,1.025837,-0.007625,0.030261,0.418745,0.907568,0.035062
1636030848552964.000000,-0.010187,-0.020130,1.024983,-0.007625,0.030261,0.418745,0.907568,0.024754
1636030848562599.000000,-0.004087,-0.017690,1.025593,-0.007625,0.030261,0.418745,0.907568,0.018610
1636030848572174.000000,-0.006954,-0.022692,1.026508,-0.007625,0.030261,0.418745,0.907568,0.024731
1636030848581907.000000,-0.016104,-0.032635,1.025532,-0.007625,0.030261,0.418745,0.907568,0.039796
1636030848591475.000000,-0.015860,-0.036112,1.024983,-0.007625,0.030261,0.418745,0.907568,0.042511
1636030848601081.000000,-0.016775,-0.034892,1.025959,-0.007625,0.030261,0.418745,0.907568,0.042193
1636030848610858.000000,-0.020679,-0.031903,1.025654,-0.007625,0.030261,0.418745,0.907568,0.043279
1636030848620359.000000,-0.015921,-0.027084,1.025715,-0.007625,0.030261,0.418745,0.907568,0.035221
1636030848630103.000000,-0.001281,-0.017812,1.025105,-0.007625,0.030261,0.418745,0.907568,0.017904
1636030848639739.000000,-0.002684,-0.012078,1.026142,-0.007625,0.030261,0.418745,0.907568,0.012660
1636030848649318.000000,-0.017385,-0.012932,1.026813,-0.007625,0.030261,0.418745,0.907568,0.027780
1636030848658909.000000,-0.013298,-0.012444,1.024678,-0.007625,0.030261,0.418745,0.907568,0.022551
1636030848668536.000000,0.000366,-0.010614,1.026081,-0.007625,0.030261,0.418745,0.907568,0.010627
1636030848678272.000000,-0.000549,-0.011590,1.027789,-0.007625,0.030261,0.418745,0.907568,0.011616
1636030848687854.000000,-0.010553,-0.011163,1.027423,-0.007625,0.030261,0.418745,0.907568,0.018637
1636030848697447.000000,-0.012505,-0.006344,1.026447,-0.007625,0.030261,0.418745,0.907568,0.018788
1636030848707209.000000,-0.005551,-0.001464,1.026325,-0.007625,0.030261,0.418745,0.907568,0.007986
1636030848716796.000000,0.001281,-0.000366,1.027484,-0.007625,0.030261,0.418745,0.907568,0.001848
1636030848726382.000000,0.001403,-0.007259,1.025654,-0.007625,0.030261,0.418745,0.907568,0.007525
1636030848736114.000000,-0.000305,-0.013847,1.024373,-0.007625,0.030261,0.418745,0.907568,0.013854
1636030848745695.000000,-0.001708,-0.016775,1.025532,-0.007625,0.030261,0.418745,0.907568,0.016948
1636030848755280.000000,-0.005978,-0.020557,1.026081,-0.007625,0.030261,0.418745,0.907568,0.022228
1636030848765022.000000,-0.010004,-0.020923,1.026020,-0.007625,0.030261,0.418745,0.907568,0.025257
1636030848774626.000000,-0.009150,-0.017324,1.024861,-0.007625,0.030261,0.418745,0.907568,0.021623
1636030848784219.000000,-0.008845,-0.015860,1.024617,-0.007625,0.030261,0.418745,0.907568,0.020199
1636030848793829.000000,-0.006649,-0.014640,1.025044,-0.007625,0.030261,0.418745,0.907568,0.017400
1636030848803448.000000,-0.004148,-0.013237,1.025227,-0.007625,0.030261,0.418745,0.907568,0.014479
1636030848813096.000000,-0.003416,-0.012688,1.025166,-0.007625,0.030261,0.418745,0.907568,0.013577
1636030848822845.000000,-0.005612,-0.012993,1.025532,-0.007625,0.030261,0.418745,0.907568,0.015225
1636030848832440.000000,-0.010370,-0.016348,1.026874,-0.007625,0.030261,0.418745,0.907568,0.021962
1636030848842037.000000,-0.011956,-0.018483,1.027240,-0.007625,0.030261,0.418745,0.907568,0.025050
1636030848851636.000000,-0.012810,-0.020252,1.026020,-0.007625,0.030261,0.418745,0.907568,0.027172
1636030848861384.000000,-0.014396,-0.021838,1.027118,-0.007625,0.030261,0.418745,0.907568,0.029856
1636030848870971.000000,-0.010187,-0.018544,1.027667,-0.007625,0.030261,0.418745,0.907568,0.023483
1636030848880559.000000,-0.002806,-0.014091,1.025654,-0.007625,0.030261,0.418745,0.907568,0.014639
1636030848890288.000000,-0.008418,-0.017629,1.025898,-0.007625,0.030261,0.418745,0.907568,0.021272
1636030848899892.000000,-0.013786,-0.020313,1.025532,-0.007625,0.030261,0.418745,0.907568,0.028155
1636030848909507.000000,-0.009882,-0.017690,1.024983,-0.007625,0.030261,0.418745,0.907568,0.022544
1636030848919108.000000,-0.005185,-0.014945,1.025044,-0.007625,0.030261,0.418745,0.907568,0.016647
1636030848928708.000000,-0.002135,-0.012993,1.024861,-0.007625,0.030261,0.418745,0.907568,0.013339
1636030848938445.000000,-0.007625,-0.016531,1.025105,-0.007625,0.030261,0.418745,0.907568,0.019737
1636030848948010.000000,-0.008906,-0.018361,1.025898,-0.007625,0.030261,0.418745,0.907568,0.022266
1636030848957727.000000,-0.006283,-0.015555,1.025898,-0.007625,0.030261,0.418745,0.907568,0.017914
1636030848967299.000000,-0.007869,-0.014518,1.024495,-0.007625,0.030261,0.418745,0.907568,0.018292
1636030848977029.000000,-0.008418,-0.014640,1.025044,-0.007625,0.030261,0.418745,0.907568,0.018869
1636030848986619.000000,-0.007076,-0.014823,1.025715,-0.007625,0.030261,0.418745,0.907568,0.017885
1636030848996197.000000,-0.002989,-0.013298,1.025898,-0.007625,0.030261,0.418745,0.907568,0.013954
1636030849005815.000000,-0.001464,-0.011956,1.026203,-0.007625,0.030261,0.418745,0.907568,0.012134
1636030849015560.000000,-0.003660,-0.013481,1.025288,-0.007625,0.030261,0.418745,0.907568,0.014441
1636030849025147.000000,0.001403,-0.012627,1.026020,-0.007625,0.030261,0.418745,0.907568,0.012782
1636030849034735.000000,-0.005551,-0.015921,1.027362,-0.007625,0.030261,0.418745,0.907568,0.017751
1636030849044358.000000,-0.017263,-0.019337,1.026203,-0.007625,0.030261,0.418745,0.907568,0.031144
1636030849054097.000000,-0.009455,-0.015128,1.025227,-0.007625,0.030261,0.418745,0.907568,0.020190
1636030849063686.000000,-0.001708,-0.011956,1.026081,-0.007625,0.030261,0.418745,0.907568,0.012198
1636030849073276.000000,-0.006222,-0.015311,1.026386,-0.007625,0.030261,0.418745,0.907568,0.017659
1636030849082891.000000,-0.010248,-0.018483,1.025349,-0.007625,0.030261,0.418745,0.907568,0.023488
1636030849092628.000000,-0.007564,-0.017080,1.024739,-0.007625,0.030261,0.418745,0.907568,0.020153
1636030849102211.000000,-0.012871,-0.020313,1.025898,-0.007625,0.030261,0.418745,0.907568,0.027275
1636030849111844.000000,-0.032513,-0.034221,1.024983,-0.007625,0.030261,0.418745,0.907568,0.057317
1636030849121430.000000,-0.054351,-0.060756,1.023824,-0.007625,0.030261,0.418745,0.907568,0.097976
1636030849131160.000000,-0.038491,-0.035563,1.023092,-0.007625,0.030261,0.418745,0.907568,0.065022
1636030849140769.000000,-0.013969,-0.017812,1.026874,-0.007625,0.030261,0.418745,0.907568,0.026599
1636030849150400.000000,0.006466,-0.020374,1.029314,-0.007625,0.030261,0.418745,0.907568,0.022332
1636030849160020.000000,0.026413,0.009882,1.025654,-0.007625,0.030261,0.418745,0.907568,0.038639
1636030849169654.000000,0.017446,0.007320,1.024434,-0.007625,0.030261,0.418745,0.907568,0.025735
1636030849179277.000000,0.000793,-0.010614,1.024251,-0.007625,0.030261,0.418745,0.907568,0.010673
1636030849189026.000000,-0.015860,-0.022814,1.024068,-0.007625,0.030261,0.418745,0.907568,0.031993
1636030849198621.000000,-0.019642,-0.024888,1.024861,-0.007625,0.030261,0.418745,0.907568,0.037296
1636030849208236.000000,-0.002684,-0.008418,1.026203,-0.007625,0.030261,0.418745,0.907568,0.009234
1636030849217835.000000,-0.002135,-0.007625,1.026020,-0.007625,0.030261,0.418745,0.907568,0.008201
1636030849227421.000000,-0.013908,-0.020618,1.024800,-0.007625,0.030261,0.418745,0.907568,0.028495
1636030849237154.000000,-0.017995,-0.024705,1.024739,-0.007625,0.030261,0.418745,0.907568,0.035468
1636030849246735.000000,-0.017995,-0.026047,1.026691,-0.007625,0.030261,0.418745,0.907568,0.036415
1636030849256463.000000,-0.012688,-0.023302,1.026874,-0.007625,0.030261,0.418745,0.907568,0.029410
1636030849266097.000000,-0.011407,-0.021716,1.025776,-0.007625,0.030261,0.418745,0.907568,0.027052
1636030849275685.000000,-0.013603,-0.020557,1.026020,-0.007625,0.030261,0.418745,0.907568,0.028154
1636030849285262.000000,-0.009455,-0.017568,1.025532,-0.007625,0.030261,0.418745,0.907568,0.022078
1636030849295014.000000,0.001037,-0.020069,1.024251,-0.007625,0.030261,0.418745,0.907568,0.020123
1636030849304528.000000,0.002135,-0.018605,1.023580,-0.007625,0.030261,0.418745,0.907568,0.018848
1636030849314286.000000,-0.031110,-0.026718,1.025532,-0.007625,0.030261,0.418745,0.907568,0.051473
1636030849323897.000000,-0.041724,-0.033367,1.027118,-0.007625,0.030261,0.418745,0.907568,0.067787
1636030849333499.000000,-0.013969,-0.020435,1.024800,-0.007625,0.030261,0.418745,0.907568,0.028423
1636030849343106.000000,-0.011224,-0.018300,1.023946,-0.007625,0.030261,0.418745,0.907568,0.024225
1636030849352704.000000,-0.013603,-0.019825,1.025715,-0.007625,0.030261,0.418745,0.907568,0.027625
1636030849362449.000000,-0.009638,-0.019093,1.026630,-0.007625,0.030261,0.418745,0.907568,0.023459
1636030849372069.000000,-0.010431,-0.020252,1.026935,-0.007625,0.030261,0.418745,0.907568,0.025055
1636030849381700.000000,-0.012383,-0.021960,1.025837,-0.007625,0.030261,0.418745,0.907568,0.028088
1636030849391324.000000,-0.014091,-0.022387,1.024922,-0.007625,0.030261,0.418745,0.907568,0.029971
1636030849400934.000000,-0.013054,-0.020191,1.025837,-0.007625,0.030261,0.418745,0.907568,0.027359
1636030849410523.000000,-0.009455,-0.015799,1.025654,-0.007625,0.030261,0.418745,0.907568,0.020698
1636030849420274.000000,-0.007076,-0.013725,1.025288,-0.007625,0.030261,0.418745,0.907568,0.016986
1636030849429867.000000,-0.008479,-0.015067,1.025776,-0.007625,0.030261,0.418745,0.907568,0.019256
1636030849439462.000000,-0.010675,-0.016348,1.025837,-0.007625,0.030261,0.418745,0.907568,0.022252
1636030849449058.000000,-0.010187,-0.017080,1.025898,-0.007625,0.030261,0.418745,0.907568,0.022344
1636030849458801.000000,-0.006954,-0.015006,1.025105,-0.007625,0.030261,0.418745,0.907568,0.017941
1636030849468385.000000,-0.004087,-0.012139,1.024922,-0.007625,0.030261,0.418745,0.907568,0.013445
1636030849477967.000000,-0.006100,-0.014091,1.026203,-0.007625,0.030261,0.418745,0.907568,0.016522
1636030849487700.000000,-0.010431,-0.017934,1.026142,-0.007625,0.030261,0.418745,0.907568,0.023222
1636030849497307.000000,-0.012444,-0.019093,1.025593,-0.007625,0.030261,0.418745,0.907568,0.025966
1636030849506919.000000,-0.010614,-0.017995,1.025776,-0.007625,0.030261,0.418745,0.907568,0.023434
1636030849516659.000000,-0.007625,-0.016043,1.025837,-0.007625,0.030261,0.418745,0.907568,0.019330
1636030849526233.000000,-0.007259,-0.015921,1.025471,-0.007625,0.030261,0.418745,0.907568,0.018944
1636030849535812.000000,-0.009272,-0.016958,1.026630,-0.007625,0.030261,0.418745,0.907568,0.021436
1636030849545556.000000,-0.011407,-0.018605,1.024983,-0.007625,0.030261,0.418745,0.907568,0.024625
1636030849555132.000000,-0.011041,-0.017995,1.023214,-0.007625,0.030261,0.418745,0.907568,0.023825
1636030849564769.000000,-0.010675,-0.018056,1.024678,-0.007625,0.030261,0.418745,0.907568,0.023536
1636030849574349.000000,-0.011590,-0.020313,1.025044,-0.007625,0.030261,0.418745,0.907568,0.026101
1636030849584105.000000,-0.012200,-0.020679,1.024739,-0.007625,0.030261,0.418745,0.907568,0.026931
1636030849593688.000000,-0.011346,-0.019337,1.024678,-0.007625,0.030261,0.418745,0.907568,0.025127
1636030849603270.000000,-0.011712,-0.019398,1.025349,-0.007625,0.030261,0.418745,0.907568,0.025507
1636030849612992.000000,-0.014396,-0.021533,1.025349,-0.007625,0.030261,0.418745,0.907568,0.029634
1636030849622562.000000,-0.014762,-0.022814,1.025288,-0.007625,0.030261,0.418745,0.907568,0.030924
1636030849632151.000000,-0.015250,-0.023302,1.026020,-0.007625,0.030261,0.418745,0.907568,0.031751
1636030849641871.000000,-0.014152,-0.021655,1.026447,-0.007625,0.030261,0.418745,0.907568,0.029487
1636030849651477.000000,-0.013603,-0.020862,1.026447,-0.007625,0.030261,0.418745,0.907568,0.028378
1636030849661061.000000,-0.013420,-0.020008,1.026996,-0.007625,0.030261,0.418745,0.907568,0.027577
1636030849670810.000000,-0.010675,-0.017690,1.026813,-0.007625,0.030261,0.418745,0.907568,0.023256
1636030849680416.000000,-0.009394,-0.016714,1.025776,-0.007625,0.030261,0.418745,0.907568,0.021351
1636030849689985.000000,-0.010065,-0.017568,1.025166,-0.007625,0.030261,0.418745,0.907568,0.022611
1636030849699731.000000,-0.010858,-0.019032,1.024373,-0.007625,0.030261,0.418745,0.907568,0.024454
1636030849709354.000000,-0.011102,-0.019520,1.024190,-0.007625,0.030261,0.418745,0.907568,0.025051
1636030849718985.000000,-0.011346,-0.018422,1.024556,-0.007625,0.030261,0.418745,0.907568,0.024430
1636030849728561.000000,-0.010309,-0.016592,1.024739,-0.007625,0.030261,0.418745,0.907568,0.022087
1636030849738152.000000,-0.008052,-0.016104,1.024556,-0.007625,0.030261,0.418745,0.907568,0.019723
1636030849747895.000000,-0.007259,-0.016287,1.024434,-0.007625,0.030261,0.418745,0.907568,0.019252
1636030849757515.000000,-0.007991,-0.015982,1.025227,-0.007625,0.030261,0.418745,0.907568,0.019574
1636030849767094.000000,-0.008174,-0.014884,1.026142,-0.007625,0.030261,0.418745,0.907568,0.018846
1636030849776820.000000,-0.008418,-0.014579,1.026264,-0.007625,0.030261,0.418745,0.907568,0.018822
1636030849786394.000000,-0.008479,-0.015189,1.025410,-0.007625,0.030261,0.418745,0.907568,0.019352
1636030849795984.000000,-0.007930,-0.015555,1.025105,-0.007625,0.030261,0.418745,0.907568,0.019176
1636030849805602.000000,-0.007808,-0.015677,1.026020,-0.007625,0.030261,0.418745,0.907568,0.019175
1636030849815348.000000,-0.008113,-0.014945,1.026081,-0.007625,0.030261,0.418745,0.907568,0.018841
1636030849824927.000000,-0.008174,-0.014640,1.025715,-0.007625,0.030261,0.418745,0.907568,0.018654
1636030849834529.000000,-0.008662,-0.014579,1.026020,-0.007625,0.030261,0.418745,0.907568,0.019042
1636030849844242.000000,-0.009516,-0.015128,1.025227,-0.007625,0.030261,0.418745,0.907568,0.020248
1636030849853830.000000,-0.009150,-0.016287,1.024739,-0.007625,0.030261,0.418745,0.907568,0.020802
1636030849863461.000000,-0.007747,-0.016104,1.025227,-0.007625,0.030261,0.418745,0.907568,0.019477
1636030849873050.000000,-0.007259,-0.015982,1.025288,-0.007625,0.030261,0.418745,0.907568,0.018995
1636030849882792.000000,-0.006893,-0.015860,1.024739,-0.007625,0.030261,0.418745,0.907568,0.018616
1636030849892386.000000,-0.006588,-0.015494,1.024556,-0.007625,0.030261,0.418745,0.907568,0.018079
1636030849901987.000000,-0.007137,-0.015311,1.025105,-0.007625,0.030261,0.418745,0.907568,0.018338
1636030849911605.000000,-0.007686,-0.015311,1.025410,-0.007625,0.030261,0.418745,0.907568,0.018777
1636030849921356.000000,-0.008357,-0.015067,1.024922,-0.007625,0.030261,0.418745,0.907568,0.019149
1636030849930999.000000,-0.008479,-0.014884,1.024617,-0.007625,0.030261,0.418745,0.907568,0.019113
1636030849940578.000000,-0.007869,-0.015311,1.024800,-0.007625,0.030261,0.418745,0.907568,0.018928
1636030849950148.000000,-0.007869,-0.015799,1.025166,-0.007625,0.030261,0.418745,0.907568,0.019325
1636030849959762.000000,-0.008113,-0.016043,1.025471,-0.007625,0.030261,0.418745,0.907568,0.019724
1636030849969497.000000,-0.008296,-0.015433,1.025288,-0.007625,0.030261,0.418745,0.907568,0.019386
1636030849979079.000000,-0.008418,-0.015311,1.025349,-0.007625,0.030261,0.418745,0.907568,0.019395
1636030849988804.000000,-0.008113,-0.015555,1.025837,-0.007625,0.030261,0.418745,0.907568,0.019329
1636030849998377.000000,-0.007442,-0.015494,1.025898,-0.007625,0.030261,0.418745,0.907568,0.018730
1636030850007986.000000,-0.007564,-0.015860,1.025593,-0.007625,0.030261,0.418745,0.907568,0.019130
1636030850017721.000000,-0.007930,-0.015677,1.025532,-0.007625,0.030261,0.418745,0.907568,0.019275
1636030850027320.000000,-0.007991,-0.015799,1.024922,-0.007625,0.030261,0.418745,0.907568,0.019425
1636030850036906.000000,-0.008235,-0.015738,1.024922,-0.007625,0.030261,0.418745,0.907568,0.019578
1636030850046495.000000,-0.008052,-0.015738,1.026386,-0.007625,0.030261,0.418745,0.907568,0.019426
1636030850056239.000000,-0.007869,-0.015494,1.026630,-0.007625,0.030261,0.418745,0.907568,0.019076
1636030850065823.000000,-0.007747,-0.014823,1.025776,-0.007625,0.030261,0.418745,0.907568,0.018432
1636030850075421.000000,-0.007930,-0.014884,1.025105,-0.007625,0.030261,0.418745,0.907568,0.018636
1636030850085170.000000,-0.008113,-0.015128,1.025166,-0.007625,0.030261,0.418745,0.907568,0.018987
1636030850094774.000000,-0.008052,-0.015006,1.025715,-0.007625,0.030261,0.418745,0.907568,0.018837
1636030850104370.000000,-0.007686,-0.015067,1.025349,-0.007625,0.030261,0.418745,0.907568,0.018579
1636030850113955.000000,-0.007320,-0.015494,1.024068,-0.007625,0.030261,0.418745,0.907568,0.018634
1636030850123696.000000,-0.008113,-0.015372,1.024190,-0.007625,0.030261,0.418745,0.907568,0.019182
1636030850133289.000000,-0.008113,-0.015433,1.025288,-0.007625,0.030261,0.418745,0.907568,0.019231
1636030850142872.000000,-0.007686,-0.015555,1.025593,-0.007625,0.030261,0.418745,0.907568,0.018976
1636030850152614.000000,-0.007747,-0.015433,1.025532,-0.007625,0.030261,0.418745,0.907568,0.018926
1636030850162249.000000,-0.007137,-0.015250,1.025105,-0.007625,0.030261,0.418745,0.907568,0.018288
1636030850171861.000000,-0.007076,-0.015006,1.025593,-0.007625,0.030261,0.418745,0.907568,0.018037
1636030850181431.000000,-0.007686,-0.014762,1.026203,-0.007625,0.030261,0.418745,0.907568,0.018332
1636030850191095.000000,-0.007930,-0.015250,1.026020,-0.007625,0.030261,0.418745,0.907568,0.018930
1636030850200739.000000,-0.008052,-0.015677,1.025654,-0.007625,0.030261,0.418745,0.907568,0.019376
1636030850210428.000000,-0.007808,-0.015128,1.025593,-0.007625,0.030261,0.418745,0.907568,0.018729
1636030850219981.000000,-0.007991,-0.015006,1.025532,-0.007625,0.030261,0.418745,0.907568,0.018785
1636030850229683.000000,-0.008174,-0.014884,1.025898,-0.007625,0.030261,0.418745,0.907568,0.018846
1636030850239329.000000,-0.007991,-0.014762,1.026142,-0.007625,0.030261,0.418745,0.907568,0.018591
1636030850248858.000000,-0.008357,-0.015067,1.025227,-0.007625,0.030261,0.418745,0.907568,0.019149
1636030850258534.000000,-0.008235,-0.015372,1.025837,-0.007625,0.030261,0.418745,0.907568,0.019285
1636030850268192.000000,-0.007686,-0.015250,1.026447,-0.007625,0.030261,0.418745,0.907568,0.018727
1636030850277786.000000,-0.007991,-0.015006,1.026020,-0.007625,0.030261,0.418745,0.907568,0.018785
1636030850287499.000000,-0.007930,-0.015555,1.025471,-0.007625,0.030261,0.418745,0.907568,0.019176
1636030850297108.000000,-0.007808,-0.016226,1.024861,-0.007625,0.030261,0.418745,0.907568,0.019627
1636030850306672.000000,-0.008113,-0.015860,1.025044,-0.007625,0.030261,0.418745,0.907568,0.019575
1636030850316407.000000,-0.007930,-0.015860,1.025532,-0.007625,0.030261,0.418745,0.907568,0.019424
1636030850325942.000000,-0.007564,-0.015677,1.025044,-0.007625,0.030261,0.418745,0.907568,0.018979
1636030850335630.000000,-0.007503,-0.015067,1.024861,-0.007625,0.030261,0.418745,0.907568,0.018428
1636030850345237.000000,-0.007564,-0.015250,1.025837,-0.007625,0.030261,0.418745,0.907568,0.018628
1636030850354844.000000,-0.007747,-0.015555,1.026203,-0.007625,0.030261,0.418745,0.907568,0.019026
1636030850364511.000000,-0.008113,-0.015860,1.025959,-0.007625,0.030261,0.418745,0.907568,0.019575
1636030850374216.000000,-0.008540,-0.016165,1.025654,-0.007625,0.030261,0.418745,0.907568,0.020178
1636030850383779.000000,-0.008357,-0.015738,1.025654,-0.007625,0.030261,0.418745,0.907568,0.019682
1636030850393431.000000,-0.007930,-0.015616,1.026142,-0.007625,0.030261,0.418745,0.907568,0.019226
1636030850403061.000000,-0.008052,-0.015555,1.026142,-0.007625,0.030261,0.418745,0.907568,0.019278
1636030850412716.000000,-0.007991,-0.015006,1.025898,-0.007625,0.030261,0.418745,0.907568,0.018785
1636030850422373.000000,-0.006710,-0.015433,1.025471,-0.007625,0.030261,0.418745,0.907568,0.018117
1636030850432021.000000,-0.006100,-0.015433,1.024739,-0.007625,0.030261,0.418745,0.907568,0.017680
1636030850441550.000000,-0.007442,-0.015372,1.024678,-0.007625,0.030261,0.418745,0.907568,0.018630
1636030850451189.000000,-0.009577,-0.017568,1.025532,-0.007625,0.030261,0.418745,0.907568,0.022183
1636030850460819.000000,-0.016226,-0.023363,1.026020,-0.007625,0.030261,0.418745,0.907568,0.032747
1636030850470485.000000,-0.028243,-0.035868,1.025410,-0.007625,0.030261,0.418745,0.907568,0.053683
1636030850480175.000000,-0.034526,-0.041724,1.025105,-0.007625,0.030261,0.418745,0.907568,0.064226
1636030850489814.000000,-0.034831,-0.035807,1.025532,-0.007625,0.030261,0.418745,0.907568,0.060898
1636030850499485.000000,-0.042273,-0.038003,1.026569,-0.007625,0.030261,0.418745,0.907568,0.070840
1636030850509119.000000,-0.050081,-0.043859,1.026935,-0.007625,0.030261,0.418745,0.907568,0.083306
1636030850518645.000000,-0.044713,-0.039894,1.025593,-0.007625,0.030261,0.418745,0.907568,0.074767
1636030850528272.000000,-0.038430,-0.037088,1.025166,-0.007625,0.030261,0.418745,0.907568,0.065797
1636030850537913.000000,-0.035441,-0.035258,1.025959,-0.007625,0.030261,0.418745,0.907568,0.061280
1636030850547601.000000,-0.029036,-0.029951,1.025959,-0.007625,0.030261,0.418745,0.907568,0.050826
1636030850557273.000000,-0.023302,-0.027023,1.025410,-0.007625,0.030261,0.418745,0.907568,0.042617
1636030850566903.000000,-0.022387,-0.025010,1.024800,-0.007625,0.030261,0.418745,0.907568,0.040347
1636030850576500.000000,-0.018544,-0.017568,1.024190,-0.007625,0.030261,0.418745,0.907568,0.031566
1636030850586203.000000,-0.012444,-0.008601,1.024068,-0.007625,0.030261,0.418745,0.907568,0.019588
1636030850595797.000000,-0.016653,-0.009211,1.024861,-0.007625,0.030261,0.418745,0.907568,0.025288
1636030850605379.000000,-0.025071,-0.018300,1.026142,-0.007625,0.030261,0.418745,0.907568,0.039900
1636030850615124.000000,-0.027755,-0.027816,1.026447,-0.007625,0.030261,0.418745,0.907568,0.048108
1636030850624723.000000,-0.025254,-0.036356,1.026691,-0.007625,0.030261,0.418745,0.907568,0.050964
1636030850634335.000000,-0.022997,-0.042944,1.027545,-0.007625,0.030261,0.418745,0.907568,0.053869
1636030850643915.000000,-0.022753,-0.046543,1.026142,-0.007625,0.030261,0.418745,0.907568,0.056583
1636030850653628.000000,-0.024949,-0.051606,1.024617,-0.007625,0.030261,0.418745,0.907568,0.062515
1636030850663199.000000,-0.027999,-0.061427,1.024861,-0.007625,0.030261,0.418745,0.907568,0.073083
1636030850672931.000000,-0.027511,-0.070760,1.025471,-0.007625,0.030261,0.418745,0.907568,0.080751
1636030850682514.000000,-0.017751,-0.065941,1.024434,-0.007625,0.030261,0.418745,0.907568,0.070558
1636030850692089.000000,-0.001830,-0.041846,1.024068,-0.007625,0.030261,0.418745,0.907568,0.041926
1636030850701815.000000,-0.011407,-0.042517,1.024800,-0.007625,0.030261,0.418745,0.907568,0.045475
1636030850711401.000000,-0.021777,-0.047885,1.024434,-0.007625,0.030261,0.418745,0.907568,0.056934
1636030850721108.000000,-0.012017,-0.034770,1.024800,-0.007625,0.030261,0.418745,0.907568,0.038701
1636030850730693.000000,0.001342,-0.013786,1.025532,-0.007625,0.030261,0.418745,0.907568,0.013916
1636030850740279.000000,-0.000732,-0.006832,1.026447,-0.007625,0.030261,0.418745,0.907568,0.006910
1636030850749988.000000,0.007564,-0.011590,1.024373,-0.007625,0.030261,0.418745,0.907568,0.015772
1636030850759569.000000,0.020862,-0.010614,1.027728,-0.007625,0.030261,0.418745,0.907568,0.031354
1636030850769278.000000,-0.012139,-0.034282,1.028887,-0.007625,0.030261,0.418745,0.907568,0.038340
1636030850778876.000000,-0.025620,-0.038857,1.025227,-0.007625,0.030261,0.418745,0.907568,0.053128
1636030850788448.000000,0.000183,-0.013115,1.025532,-0.007625,0.030261,0.418745,0.907568,0.013118
1636030850798171.000000,0.005246,-0.005795,1.024800,-0.007625,0.030261,0.418745,0.907568,0.009414
1636030850807806.000000,0.003904,-0.014701,1.026447,-0.007625,0.030261,0.418745,0.907568,0.015704
1636030850817389.000000,0.019093,-0.011712,1.026264,-0.007625,0.030261,0.418745,0.907568,0.029432
1636030850827091.000000,0.022875,-0.002013,1.024251,-0.007625,0.030261,0.418745,0.907568,0.032413
1636030850836668.000000,0.024766,0.002623,1.025105,-0.007625,0.030261,0.418745,0.907568,0.035122
1636030850846258.000000,0.029768,-0.004148,1.024678,-0.007625,0.030261,0.418745,0.907568,0.042302
1636030850855969.000000,0.021594,-0.016958,1.024983,-0.007625,0.030261,0.418745,0.907568,0.034931
1636030850865549.000000,0.005429,-0.022326,1.025410,-0.007625,0.030261,0.418745,0.907568,0.023609
1636030850875259.000000,0.004148,-0.017812,1.025654,-0.007625,0.030261,0.418745,0.907568,0.018753
1636030850884832.000000,0.007381,-0.014091,1.027789,-0.007625,0.030261,0.418745,0.907568,0.017536
1636030850894554.000000,0.003294,-0.010370,1.027179,-0.007625,0.030261,0.418745,0.907568,0.011368
1636030850904150.000000,0.008662,-0.008113,1.026691,-0.007625,0.030261,0.418745,0.907568,0.014693
1636030850913767.000000,0.006954,-0.010675,1.026569,-0.007625,0.030261,0.418745,0.907568,0.014515
1636030850923388.000000,-0.009211,-0.012749,1.024617,-0.007625,0.030261,0.418745,0.907568,0.018227
1636030850933008.000000,-0.018788,-0.014579,1.025532,-0.007625,0.030261,0.418745,0.907568,0.030307
1636030850942713.000000,-0.007137,-0.009028,1.026752,-0.007625,0.030261,0.418745,0.907568,0.013542
1636030850952303.000000,0.013481,-0.005734,1.024373,-0.007625,0.030261,0.418745,0.907568,0.019909
1636030850961899.000000,0.024522,-0.009516,1.024373,-0.007625,0.030261,0.418745,0.907568,0.035961
1636030850971607.000000,0.021777,-0.010492,1.025593,-0.007625,0.030261,0.418745,0.907568,0.032535
1636030850981190.000000,0.009760,-0.016165,1.027057,-0.007625,0.030261,0.418745,0.907568,0.021256
1636030850990898.000000,0.007137,-0.017873,1.025654,-0.007625,0.030261,0.418745,0.907568,0.020526
1636030851000484.000000,0.022143,-0.019886,1.023397,-0.007625,0.030261,0.418745,0.907568,0.037096
1636030851010193.000000,0.022082,-0.026108,1.025044,-0.007625,0.030261,0.418745,0.907568,0.040705
1636030851019834.000000,0.015128,-0.031171,1.027362,-0.007625,0.030261,0.418745,0.907568,0.037807
1636030851029465.000000,0.025681,-0.030683,1.027118,-0.007625,0.030261,0.418745,0.907568,0.047544
1636030851039099.000000,0.034648,-0.022326,1.025654,-0.007625,0.030261,0.418745,0.907568,0.053846
1636030851048730.000000,0.020862,-0.020008,1.026264,-0.007625,0.030261,0.418745,0.907568,0.035648
1636030851058364.000000,0.007198,-0.022204,1.027911,-0.007625,0.030261,0.418745,0.907568,0.024426
1636030851067981.000000,0.004148,-0.023668,1.025288,-0.007625,0.030261,0.418745,0.907568,0.024384
1636030851077636.000000,-0.010492,-0.030012,1.022787,-0.007625,0.030261,0.418745,0.907568,0.033480
1636030851087247.000000,-0.004758,-0.025498,1.024068,-0.007625,0.030261,0.418745,0.907568,0.026371
1636030851096893.000000,0.014884,-0.002684,1.025349,-0.007625,0.030261,0.418745,0.907568,0.021220
1636030851106543.000000,0.003050,0.000000,1.024739,-0.007625,0.030261,0.418745,0.907568,0.004313
1636030851116181.000000,-0.028060,-0.016836,1.023214,-0.007625,0.030261,0.418745,0.907568,0.043107
1636030851125790.000000,-0.030561,-0.010980,1.024007,-0.007625,0.030261,0.418745,0.907568,0.044593
1636030851135382.000000,-0.029890,-0.010675,1.025044,-0.007625,0.030261,0.418745,0.907568,0.043598
1636030851145145.000000,-0.037454,-0.024278,1.027484,-0.007625,0.030261,0.418745,0.907568,0.058267
1636030851154728.000000,-0.020496,-0.017263,1.027179,-0.007625,0.030261,0.418745,0.907568,0.033737
1636030851164272.000000,-0.007381,-0.011346,1.025715,-0.007625,0.030261,0.418745,0.907568,0.015417
1636030851173985.000000,-0.004697,-0.009455,1.027484,-0.007625,0.030261,0.418745,0.907568,0.011555
1636030851183572.000000,-0.002013,-0.009821,1.026508,-0.007625,0.030261,0.418745,0.907568,0.010225
1636030851193306.000000,-0.007198,-0.017263,1.026020,-0.007625,0.030261,0.418745,0.907568,0.020041
1636030851202908.000000,-0.006283,-0.011651,1.026020,-0.007625,0.030261,0.418745,0.907568,0.014653
1636030851212502.000000,0.001281,-0.001830,1.025776,-0.007625,0.030261,0.418745,0.907568,0.002575
1636030851222225.000000,-0.001891,-0.007625,1.025715,-0.007625,0.030261,0.418745,0.907568,0.008080
1636030851231788.000000,-0.012993,-0.017629,1.022543,-0.007625,0.030261,0.418745,0.907568,0.025464
1636030851241389.000000,-0.022570,-0.023546,1.022299,-0.007625,0.030261,0.418745,0.907568,0.039664
1636030851251114.000000,-0.022021,-0.023241,1.024251,-0.007625,0.030261,0.418745,0.907568,0.038859
1636030851260721.000000,-0.015555,-0.018056,1.025959,-0.007625,0.030261,0.418745,0.907568,0.028459
1636030851270292.000000,-0.005551,-0.011285,1.026386,-0.007625,0.030261,0.418745,0.907568,0.013747
1636030851280010.000000,0.006222,-0.003843,1.026508,-0.007625,0.030261,0.418745,0.907568,0.009602
1636030851289588.000000,0.012261,0.000915,1.026447,-0.007625,0.030261,0.418745,0.907568,0.017364
1636030851299306.000000,0.004148,-0.004819,1.025959,-0.007625,0.030261,0.418745,0.907568,0.007592
1636030851308888.000000,-0.003782,-0.010980,1.027423,-0.007625,0.030261,0.418745,0.907568,0.012213
1636030851318455.000000,0.013420,-0.000793,1.026386,-0.007625,0.030261,0.418745,0.907568,0.018995
1636030851328171.000000,0.020557,0.009333,1.025776,-0.007625,0.030261,0.418745,0.907568,0.030533
1636030851337750.000000,0.007686,0.005856,1.025593,-0.007625,0.030261,0.418745,0.907568,0.012347
1636030851347464.000000,0.001464,0.000427,1.027057,-0.007625,0.030261,0.418745,0.907568,0.002114
1636030851357019.000000,0.004209,0.004392,1.027484,-0.007625,0.030261,0.418745,0.907568,0.007397
1636030851366745.000000,0.016531,0.015921,1.025105,-0.007625,0.030261,0.418745,0.907568,0.028285
1636030851376300.000000,0.020923,0.018788,1.025349,-0.007625,0.030261,0.418745,0.907568,0.035050
1636030851385987.000000,0.005673,0.005063,1.024007,-0.007625,0.030261,0.418745,0.907568,0.009487
1636030851395550.000000,-0.006527,-0.005612,1.024251,-0.007625,0.030261,0.418745,0.907568,0.010803
1636030851405262.000000,-0.000549,0.002318,1.025044,-0.007625,0.030261,0.418745,0.907568,0.002445
1636030851414842.000000,0.001342,0.009638,1.026142,-0.007625,0.030261,0.418745,0.907568,0.009823
1636030851424549.000000,-0.003416,0.006771,1.026386,-0.007625,0.030261,0.418745,0.907568,0.008318
1636030851434131.000000,-0.001281,0.006710,1.025837,-0.007625,0.030261,0.418745,0.907568,0.006950
1636030851443846.000000,-0.001159,0.004941,1.027179,-0.007625,0.030261,0.418745,0.907568,0.005206
1636030851453415.000000,-0.004087,0.001708,1.027057,-0.007625,0.030261,0.418745,0.907568,0.006027
1636030851463134.000000,-0.005124,0.000427,1.025898,-0.007625,0.030261,0.418745,0.907568,0.007259
1636030851472754.000000,-0.006100,-0.002501,1.026508,-0.007625,0.030261,0.418745,0.907568,0.008982
1636030851482370.000000,-0.008845,-0.006832,1.026325,-0.007625,0.030261,0.418745,0.907568,0.014253
1636030851491997.000000,-0.010858,-0.009516,1.023946,-0.007625,0.030261,0.418745,0.907568,0.018065
1636030851501579.000000,-0.011773,-0.010797,1.022726,-0.007625,0.030261,0.418745,0.907568,0.019844
1636030851511307.000000,-0.011834,-0.011529,1.023824,-0.007625,0.030261,0.418745,0.907568,0.020323
1636030851520812.000000,-0.011163,-0.011529,1.025776,-0.007625,0.030261,0.418745,0.907568,0.019548
1636030851530548.000000,-0.011285,-0.011712,1.026081,-0.007625,0.030261,0.418745,0.907568,0.019796
1636030851540134.000000,-0.011224,-0.011468,1.024983,-0.007625,0.030261,0.418745,0.907568,0.019582
1636030851549740.000000,-0.011102,-0.010919,1.025715,-0.007625,0.030261,0.418745,0.907568,0.019124
1636030851559357.000000,-0.011407,-0.010187,1.027728,-0.007625,0.030261,0.418745,0.907568,0.019079
1636030851568993.000000,-0.011956,-0.009943,1.026386,-0.007625,0.030261,0.418745,0.907568,0.019615
1636030851578714.000000,-0.012261,-0.010431,1.024434,-0.007625,0.030261,0.418745,0.907568,0.020235
1636030851588302.000000,-0.011346,-0.009943,1.026020,-0.007625,0.030261,0.418745,0.907568,0.018877
1636030851598030.000000,-0.010919,-0.010065,1.027850,-0.007625,0.030261,0.418745,0.907568,0.018432
1636030851607649.000000,-0.010919,-0.010736,1.026447,-0.007625,0.030261,0.418745,0.907568,0.018807
1636030851617265.000000,-0.011895,-0.011163,1.024312,-0.007625,0.030261,0.418745,0.907568,0.020189
1636030851626878.000000,-0.012383,-0.011590,1.025349,-0.007625,0.030261,0.418745,0.907568,0.021000
1636030851636460.000000,-0.012261,-0.011285,1.026264,-0.007625,0.030261,0.418745,0.907568,0.020689
1636030851646206.000000,-0.012688,-0.010492,1.024983,-0.007625,0.030261,0.418745,0.907568,0.020786
1636030851655797.000000,-0.012749,-0.010980,1.024190,-0.007625,0.030261,0.418745,0.907568,0.021110
1636030851665383.000000,-0.012566,-0.012566,1.024800,-0.007625,0.030261,0.418745,0.907568,0.021765
1636030851675126.000000,-0.011651,-0.012383,1.025715,-0.007625,0.030261,0.418745,0.907568,0.020611
1636030851684715.000000,-0.010553,-0.011163,1.026203,-0.007625,0.030261,0.418745,0.907568,0.018637
1636030851694295.000000,-0.009638,-0.010248,1.025959,-0.007625,0.030261,0.418745,0.907568,0.017053
1636030851703890.000000,-0.010187,-0.010126,1.026020,-0.007625,0.030261,0.418745,0.907568,0.017609
1636030851713642.000000,-0.011163,-0.010858,1.025654,-0.007625,0.030261,0.418745,0.907568,0.019160
1636030851723255.000000,-0.011651,-0.010980,1.025837,-0.007625,0.030261,0.418745,0.907568,0.019800
1636030851732844.000000,-0.012261,-0.010370,1.026325,-0.007625,0.030261,0.418745,0.907568,0.020204
1636030851742434.000000,-0.012383,-0.010248,1.026203,-0.007625,0.030261,0.418745,0.907568,0.020290
1636030851752185.000000,-0.011956,-0.010248,1.026996,-0.007625,0.030261,0.418745,0.907568,0.019772
1636030851761783.000000,-0.011346,-0.010553,1.026447,-0.007625,0.030261,0.418745,0.907568,0.019205
1636030851771397.000000,-0.011895,-0.011407,1.025166,-0.007625,0.030261,0.418745,0.907568,0.020325
1636030851780990.000000,-0.012078,-0.012200,1.024861,-0.007625,0.030261,0.418745,0.907568,0.020990
1636030851790718.000000,-0.011956,-0.012322,1.025044,-0.007625,0.030261,0.418745,0.907568,0.020922
1636030851800322.000000,-0.011407,-0.011895,1.024495,-0.007625,0.030261,0.418745,0.907568,0.020043
1636030851809901.000000,-0.010492,-0.011773,1.024617,-0.007625,0.030261,0.418745,0.907568,0.018941
1636030851819660.000000,-0.010187,-0.011529,1.025959,-0.007625,0.030261,0.418745,0.907568,0.018452
1636030851829261.000000,-0.010065,-0.010736,1.027057,-0.007625,0.030261,0.418745,0.907568,0.017829
1636030851838841.000000,-0.010614,-0.010980,1.026020,-0.007625,0.030261,0.418745,0.907568,0.018598
1636030851848430.000000,-0.010309,-0.009333,1.025654,-0.007625,0.030261,0.418745,0.907568,0.017311
1636030851858187.000000,-0.008601,-0.006649,1.027118,-0.007625,0.030261,0.418745,0.907568,0.013862
1636030851867780.000000,-0.006954,-0.005429,1.027423,-0.007625,0.030261,0.418745,0.907568,0.011233
1636030851877378.000000,-0.004880,-0.003599,1.026691,-0.007625,0.030261,0.418745,0.907568,0.007783
1636030851887113.000000,-0.001403,-0.001159,1.025959,-0.007625,0.030261,0.418745,0.907568,0.002298
1636030851896681.000000,-0.000000,0.000122,1.025532,-0.007625,0.030261,0.418745,0.907568,0.000122
1636030851906285.000000,-0.007015,-0.006405,1.025044,-0.007625,0.030261,0.418745,0.907568,0.011809
1636030851916031.000000,-0.018483,-0.017690,1.025471,-0.007625,0.030261,0.418745,0.907568,0.031562
1636030851925640.000000,-0.023424,-0.021472,1.024739,-0.007625,0.030261,0.418745,0.907568,0.039477
1636030851935263.000000,-0.020130,-0.018727,1.024312,-0.007625,0.030261,0.418745,0.907568,0.034075
1636030851944855.000000,-0.015738,-0.013969,1.025349,-0.007625,0.030261,0.418745,0.907568,0.026277
1636030851954433.000000,-0.013176,-0.010553,1.025532,-0.007625,0.030261,0.418745,0.907568,0.021414
1636030851964217.000000,-0.011468,-0.009333,1.025349,-0.007625,0.030261,0.418745,0.907568,0.018712
1636030851973813.000000,-0.009577,-0.006954,1.025898,-0.007625,0.030261,0.418745,0.907568,0.015225
1636030851983396.000000,-0.006649,-0.004087,1.026020,-0.007625,0.030261,0.418745,0.907568,0.010253
1636030851992994.000000,-0.004758,-0.001769,1.025959,-0.007625,0.030261,0.418745,0.907568,0.006957
1636030852002751.000000,-0.004087,-0.000488,1.026020,-0.007625,0.030261,0.418745,0.907568,0.005800
1636030852012380.000000,-0.005490,0.000915,1.026142,-0.007625,0.030261,0.418745,0.907568,0.007818
1636030852022029.000000,-0.005124,0.003904,1.026935,-0.007625,0.030261,0.418745,0.907568,0.008231
1636030852031658.000000,-0.006588,0.003233,1.027545,-0.007625,0.030261,0.418745,0.907568,0.009862
1636030852041298.000000,-0.014152,-0.002257,1.027606,-0.007625,0.030261,0.418745,0.907568,0.020141
1636030852050847.000000,-0.015494,-0.003660,1.026569,-0.007625,0.030261,0.418745,0.907568,0.022215
1636030852060483.000000,-0.009943,-0.001586,1.025471,-0.007625,0.030261,0.418745,0.907568,0.014151
1636030852070071.000000,-0.010614,-0.001159,1.024617,-0.007625,0.030261,0.418745,0.907568,0.015055
1636030852079808.000000,-0.008906,-0.002196,1.024068,-0.007625,0.030261,0.418745,0.907568,0.012785
1636030852089422.000000,0.002318,-0.002562,1.023458,-0.007625,0.030261,0.418745,0.907568,0.004161
1636030852099043.000000,0.013847,0.001403,1.024800,-0.007625,0.030261,0.418745,0.907568,0.019633
1636030852108624.000000,0.022387,0.007076,1.026203,-0.007625,0.030261,0.418745,0.907568,0.032441
1636030852118254.000000,0.017690,0.008296,1.025715,-0.007625,0.030261,0.418745,0.907568,0.026357
1636030852128009.000000,-0.001952,-0.000427,1.026142,-0.007625,0.030261,0.418745,0.907568,0.002793
1636030852137595.000000,-0.021472,-0.007320,1.027179,-0.007625,0.030261,0.418745,0.907568,0.031236
1636030852147180.000000,-0.028365,-0.004514,1.027484,-0.007625,0.030261,0.418745,0.907568,0.040367
1636030852156927.000000,-0.019276,0.003843,1.026691,-0.007625,0.030261,0.418745,0.907568,0.027530
1636030852166522.000000,0.001281,0.011895,1.025776,-0.007625,0.030261,0.418745,0.907568,0.012032
1636030852176100.000000,0.021289,0.008479,1.025349,-0.007625,0.030261,0.418745,0.907568,0.031278
1636030852185697.000000,0.025742,-0.000610,1.026264,-0.007625,0.030261,0.418745,0.907568,0.036410
1636030852195434.000000,0.013298,-0.008784,1.026874,-0.007625,0.030261,0.418745,0.907568,0.020756
1636030852205028.000000,-0.014396,-0.017812,1.026020,-0.007625,0.030261,0.418745,0.907568,0.027051
1636030852214610.000000,-0.032574,-0.022387,1.025166,-0.007625,0.030261,0.418745,0.907568,0.051218
1636030852224352.000000,-0.017263,-0.018971,1.024678,-0.007625,0.030261,0.418745,0.907568,0.030918
1636030852233966.000000,0.001037,-0.016714,1.025715,-0.007625,0.030261,0.418745,0.907568,0.016778
1636030852243577.000000,0.000732,-0.018849,1.026325,-0.007625,0.030261,0.418745,0.907568,0.018877
1636030852253201.000000,-0.002745,-0.021533,1.025959,-0.007625,0.030261,0.418745,0.907568,0.021880
1636030852262891.000000,0.008174,-0.017202,1.026081,-0.007625,0.030261,0.418745,0.907568,0.020725
1636030852272467.000000,0.023607,-0.008174,1.024678,-0.007625,0.030261,0.418745,0.907568,0.034371
1636030852282082.000000,0.033062,-0.005246,1.026752,-0.007625,0.030261,0.418745,0.907568,0.047050
1636030852291693.000000,0.026413,-0.010614,1.028826,-0.007625,0.030261,0.418745,0.907568,0.038832
1636030852301444.000000,0.008662,-0.017751,1.026447,-0.007625,0.030261,0.418745,0.907568,0.021568
1636030852311035.000000,-0.003355,-0.022387,1.025105,-0.007625,0.030261,0.418745,0.907568,0.022884
1636030852320628.000000,-0.007564,-0.022997,1.026020,-0.007625,0.030261,0.418745,0.907568,0.025363
1636030852330362.000000,-0.002806,-0.022448,1.025532,-0.007625,0.030261,0.418745,0.907568,0.022796
1636030852339966.000000,0.007442,-0.019581,1.025105,-0.007625,0.030261,0.418745,0.907568,0.022230
1636030852349534.000000,0.013054,-0.016714,1.026447,-0.007625,0.030261,0.418745,0.907568,0.024903
1636030852359260.000000,0.008540,-0.020801,1.026508,-0.007625,0.030261,0.418745,0.907568,0.024053
1636030852368858.000000,0.010797,-0.024461,1.026874,-0.007625,0.030261,0.418745,0.907568,0.028836
1636030852378421.000000,0.013786,-0.027572,1.026630,-0.007625,0.030261,0.418745,0.907568,0.033769
1636030852388147.000000,0.005795,-0.032940,1.025959,-0.007625,0.030261,0.418745,0.907568,0.033944
1636030852397705.000000,-0.005551,-0.038918,1.026813,-0.007625,0.030261,0.418745,0.907568,0.039702
1636030852407338.000000,-0.020923,-0.045872,1.027179,-0.007625,0.030261,0.418745,0.907568,0.054587
1636030852417091.000000,-0.030256,-0.047031,1.026020,-0.007625,0.030261,0.418745,0.907568,0.063583
1636030852426675.000000,-0.020923,-0.041785,1.026081,-0.007625,0.030261,0.418745,0.907568,0.051201
1636030852436330.000000,-0.008479,-0.036661,1.026569,-0.007625,0.030261,0.418745,0.907568,0.038572
1636030852445884.000000,0.002013,-0.030317,1.027423,-0.007625,0.030261,0.418745,0.907568,0.030450
1636030852455600.000000,0.012322,-0.021838,1.027240,-0.007625,0.030261,0.418745,0.907568,0.027939
1636030852465182.000000,0.011041,-0.012932,1.025959,-0.007625,0.030261,0.418745,0.907568,0.020274
1636030852474918.000000,-0.002013,-0.005490,1.025288,-0.007625,0.030261,0.418745,0.907568,0.006184
1636030852484483.000000,-0.018483,-0.003721,1.024800,-0.007625,0.030261,0.418745,0.907568,0.026402
1636030852494053.000000,-0.023363,-0.005490,1.024495,-0.007625,0.030261,0.418745,0.907568,0.033493
1636030852503763.000000,-0.012688,-0.011468,1.024373,-0.007625,0.030261,0.418745,0.907568,0.021295
1636030852513328.000000,-0.005124,-0.024949,1.025105,-0.007625,0.030261,0.418745,0.907568,0.025980
1636030852523075.000000,-0.015189,-0.038125,1.025105,-0.007625,0.030261,0.418745,0.907568,0.043760
1636030852532662.000000,-0.037149,-0.038674,1.025471,-0.007625,0.030261,0.418745,0.907568,0.065236
1636030852542240.000000,-0.053924,-0.029463,1.025593,-0.007625,0.030261,0.418745,0.907568,0.081754
1636030852551997.000000,-0.053924,-0.023180,1.025654,-0.007625,0.030261,0.418745,0.907568,0.079705
1636030852561550.000000,-0.045811,-0.022082,1.025898,-0.007625,0.030261,0.418745,0.907568,0.068446
1636030852571204.000000,-0.046360,-0.025498,1.025105,-0.007625,0.030261,0.418745,0.907568,0.070347
1636030852580772.000000,-0.047519,-0.027816,1.025654,-0.007625,0.030261,0.418745,0.907568,0.072731
1636030852590490.000000,-0.044896,-0.029646,1.025898,-0.007625,0.030261,0.418745,0.907568,0.070073
1636030852600058.000000,-0.043554,-0.032513,1.024922,-0.007625,0.030261,0.418745,0.907568,0.069649
1636030852609783.000000,-0.038613,-0.031537,1.024922,-0.007625,0.030261,0.418745,0.907568,0.063060
1636030852619348.000000,-0.027572,-0.025986,1.024434,-0.007625,0.030261,0.418745,0.907568,0.046858
1636030852629081.000000,-0.017019,-0.020557,1.024373,-0.007625,0.030261,0.418745,0.907568,0.031653
1636030852638646.000000,-0.014701,-0.018788,1.025593,-0.007625,0.030261,0.418745,0.907568,0.028022
1636030852648225.000000,-0.015067,-0.018117,1.026020,-0.007625,0.030261,0.418745,0.907568,0.027969
1636030852657972.000000,-0.013664,-0.017019,1.026264,-0.007625,0.030261,0.418745,0.907568,0.025750
1636030852667538.000000,-0.013359,-0.015860,1.026691,-0.007625,0.030261,0.418745,0.907568,0.024667
1636030852677254.000000,-0.012139,-0.014579,1.026813,-0.007625,0.030261,0.418745,0.907568,0.022522
1636030852686819.000000,-0.010431,-0.013603,1.026691,-0.007625,0.030261,0.418745,0.907568,0.020066
1636030852696546.000000,-0.009638,-0.012810,1.025959,-0.007625,0.030261,0.418745,0.907568,0.018705
1636030852706143.000000,-0.008784,-0.012383,1.025410,-0.007625,0.030261,0.418745,0.907568,0.017540
1636030852715781.000000,-0.008723,-0.012627,1.025837,-0.007625,0.030261,0.418745,0.907568,0.017653
1636030852725403.000000,-0.008784,-0.012688,1.026020,-0.007625,0.030261,0.418745,0.907568,0.017757
1636030852735003.000000,-0.008906,-0.012932,1.026203,-0.007625,0.030261,0.418745,0.907568,0.018052
1636030852744590.000000,-0.008418,-0.013298,1.025715,-0.007625,0.030261,0.418745,0.907568,0.017848
1636030852754331.000000,-0.011590,-0.013908,1.025227,-0.007625,0.030261,0.418745,0.907568,0.021496
1636030852763913.000000,-0.007076,-0.011651,1.025654,-0.007625,0.030261,0.418745,0.907568,0.015359
1636030852773511.000000,-0.006100,-0.012932,1.024495,-0.007625,0.030261,0.418745,0.907568,0.015545
1636030852783146.000000,-0.010919,-0.014884,1.024678,-0.007625,0.030261,0.418745,0.907568,0.021447
1636030852792887.000000,-0.007686,-0.012932,1.025593,-0.007625,0.030261,0.418745,0.907568,0.016893
1636030852802491.000000,-0.008296,-0.013237,1.025166,-0.007625,0.030261,0.418745,0.907568,0.017688
1636030852812080.000000,-0.009211,-0.012871,1.025105,-0.007625,0.030261,0.418745,0.907568,0.018313
1636030852821726.000000,-0.009455,-0.013420,1.025715,-0.007625,0.030261,0.418745,0.907568,0.018944
1636030852831458.000000,-0.009455,-0.013542,1.027118,-0.007625,0.030261,0.418745,0.907568,0.019031
1636030852841046.000000,-0.009089,-0.013237,1.026569,-0.007625,0.030261,0.418745,0.907568,0.018451
1636030852850651.000000,-0.010004,-0.012444,1.026142,-0.007625,0.030261,0.418745,0.907568,0.018842
1636030852860234.000000,-0.009028,-0.011468,1.026813,-0.007625,0.030261,0.418745,0.907568,0.017162
1636030852869972.000000,-0.008601,-0.012871,1.026569,-0.007625,0.030261,0.418745,0.907568,0.017709
1636030852879580.000000,-0.008662,-0.013115,1.026752,-0.007625,0.030261,0.418745,0.907568,0.017946
1636030852889196.000000,-0.008296,-0.012566,1.026020,-0.007625,0.030261,0.418745,0.907568,0.017192
1636030852898798.000000,-0.008235,-0.012871,1.025227,-0.007625,0.030261,0.418745,0.907568,0.017358
1636030852908525.000000,-0.008052,-0.013054,1.024617,-0.007625,0.030261,0.418745,0.907568,0.017323
1636030852918089.000000,-0.007442,-0.013298,1.024739,-0.007625,0.030261,0.418745,0.907568,0.016959
1636030852927721.000000,-0.007442,-0.013725,1.024800,-0.007625,0.030261,0.418745,0.907568,0.017296
1636030852937362.000000,-0.008296,-0.014091,1.024678,-0.007625,0.030261,0.418745,0.907568,0.018336
1636030852947079.000000,-0.008540,-0.013725,1.025349,-0.007625,0.030261,0.418745,0.907568,0.018282
1636030852956649.000000,-0.008784,-0.013359,1.024556,-0.007625,0.030261,0.418745,0.907568,0.018242
1636030852966230.000000,-0.010187,-0.012993,1.025349,-0.007625,0.030261,0.418745,0.907568,0.019400
1636030852975951.000000,-0.010614,-0.013481,1.026630,-0.007625,0.030261,0.418745,0.907568,0.020176
1636030852985518.000000,-0.009394,-0.013725,1.026630,-0.007625,0.030261,0.418745,0.907568,0.019102
1636030852995232.000000,-0.009577,-0.013481,1.026935,-0.007625,0.030261,0.418745,0.907568,0.019110
1636030853004798.000000,-0.009028,-0.013481,1.026325,-0.007625,0.030261,0.418745,0.907568,0.018567
1636030853014538.000000,-0.008052,-0.013115,1.025959,-0.007625,0.030261,0.418745,0.907568,0.017369
1636030853024138.000000,-0.008601,-0.012810,1.025837,-0.007625,0.030261,0.418745,0.907568,0.017665
1636030853033714.000000,-0.009028,-0.013115,1.025227,-0.007625,0.030261,0.418745,0.907568,0.018303
1636030853043384.000000,-0.008906,-0.012993,1.027118,-0.007625,0.030261,0.418745,0.907568,0.018096
1636030853052980.000000,-0.010492,-0.013969,1.025410,-0.007625,0.030261,0.418745,0.907568,0.020379
1636030853062701.000000,-0.011834,-0.015128,1.023641,-0.007625,0.030261,0.418745,0.907568,0.022560
1636030853072272.000000,-0.002379,-0.018910,1.022665,-0.007625,0.030261,0.418745,0.907568,0.019207
1636030853081992.000000,-0.012993,-0.010492,1.026386,-0.007625,0.030261,0.418745,0.907568,0.021159
1636030853091574.000000,-0.016958,-0.008479,1.029680,-0.007625,0.030261,0.418745,0.907568,0.025437
1636030853101143.000000,-0.008906,-0.017080,1.025166,-0.007625,0.030261,0.418745,0.907568,0.021222
1636030853110870.000000,-0.013542,-0.015616,1.023519,-0.007625,0.030261,0.418745,0.907568,0.024711
1636030853120473.000000,-0.009699,-0.015677,1.022909,-0.007625,0.030261,0.418745,0.907568,0.020830
1636030853130046.000000,-0.012444,-0.017202,1.019798,-0.007625,0.030261,0.418745,0.907568,0.024609
1636030853139797.000000,-0.014945,-0.017690,1.021323,-0.007625,0.030261,0.418745,0.907568,0.027562
1636030853149377.000000,-0.012444,-0.015616,1.025959,-0.007625,0.030261,0.418745,0.907568,0.023528
1636030853158949.000000,-0.010370,-0.014457,1.026508,-0.007625,0.030261,0.418745,0.907568,0.020593
1636030853168628.000000,-0.010980,-0.013847,1.025837,-0.007625,0.030261,0.418745,0.907568,0.020805
1636030853178323.000000,-0.011529,-0.014213,1.025654,-0.007625,0.030261,0.418745,0.907568,0.021630
1636030853187878.000000,-0.010919,-0.014213,1.027301,-0.007625,0.030261,0.418745,0.907568,0.020987
1636030853197586.000000,-0.010553,-0.012627,1.027301,-0.007625,0.030261,0.418745,0.907568,0.019549
1636030853207189.000000,-0.010126,-0.012322,1.026447,-0.007625,0.030261,0.418745,0.907568,0.018892
1636030853216761.000000,-0.010004,-0.013298,1.026203,-0.007625,0.030261,0.418745,0.907568,0.019416
1636030853226500.000000,-0.010431,-0.013420,1.026325,-0.007625,0.030261,0.418745,0.907568,0.019943
1636030853236071.000000,-0.010675,-0.014030,1.026142,-0.007625,0.030261,0.418745,0.907568,0.020610
1636030853245796.000000,-0.010431,-0.015189,1.026203,-0.007625,0.030261,0.418745,0.907568,0.021174
1636030853255369.000000,-0.010797,-0.015311,1.026935,-0.007625,0.030261,0.418745,0.907568,0.021624
1636030853264944.000000,-0.011224,-0.014457,1.026996,-0.007625,0.030261,0.418745,0.907568,0.021470
1636030853274669.000000,-0.010919,-0.014030,1.025654,-0.007625,0.030261,0.418745,0.907568,0.020864
1636030853284251.000000,-0.011895,-0.014335,1.024861,-0.007625,0.030261,0.418745,0.907568,0.022101
1636030853293982.000000,-0.011590,-0.013359,1.030107,-0.007625,0.030261,0.418745,0.907568,0.021145
1636030853303556.000000,-0.007991,-0.014030,1.028826,-0.007625,0.030261,0.418745,0.907568,0.018015
1636030853313114.000000,-0.002562,-0.010126,1.031266,-0.007625,0.030261,0.418745,0.907568,0.010755
1636030853322841.000000,-0.013237,0.013115,1.074210,-0.007625,0.030261,0.418745,0.907568,0.022857
1636030853332449.000000,-0.005490,0.027938,1.120448,-0.007625,0.030261,0.418745,0.907568,0.028997
1636030853342024.000000,0.016165,0.014274,1.130574,-0.007625,0.030261,0.418745,0.907568,0.026951
1636030853351753.000000,0.012566,0.001220,1.120204,-0.007625,0.030261,0.418745,0.907568,0.017813
1636030853361317.000000,-0.008357,-0.001403,1.104039,-0.007625,0.030261,0.418745,0.907568,0.011902
1636030853370948.000000,-0.025681,-0.010065,1.092998,-0.007625,0.030261,0.418745,0.907568,0.037687
1636030853380649.000000,-0.025193,-0.020618,1.092083,-0.007625,0.030261,0.418745,0.907568,0.041164
1636030853390204.000000,-0.018056,-0.034099,1.087996,-0.007625,0.030261,0.418745,0.907568,0.042600
1636030853399909.000000,-0.011590,-0.057401,1.069086,-0.007625,0.030261,0.418745,0.907568,0.059695
1636030853409497.000000,-0.009760,-0.084058,1.042124,-0.007625,0.030261,0.418745,0.907568,0.085184
1636030853419216.000000,-0.009150,-0.109556,1.018395,-0.007625,0.030261,0.418745,0.907568,0.110318
1636030853428813.000000,-0.014823,-0.124013,1.007720,-0.007625,0.030261,0.418745,0.907568,0.125772
1636030853438393.000000,-0.018300,-0.129808,1.004426,-0.007625,0.030261,0.418745,0.907568,0.132363
1636030853448122.000000,-0.018056,-0.145790,1.009733,-0.007625,0.030261,0.418745,0.907568,0.148009
1636030853457714.000000,-0.019947,-0.164700,1.020225,-0.007625,0.030261,0.418745,0.907568,0.167098
1636030853467305.000000,-0.022692,-0.172081,1.026081,-0.007625,0.030261,0.418745,0.907568,0.175048
1636030853477017.000000,-0.025681,-0.182451,1.022848,-0.007625,0.030261,0.418745,0.907568,0.186031
1636030853486710.000000,-0.038125,-0.206485,1.017785,-0.007625,0.030261,0.418745,0.907568,0.213408
1636030853496261.000000,-0.048861,-0.222162,1.002352,-0.007625,0.030261,0.418745,0.907568,0.232660
1636030853505965.000000,-0.030195,-0.216428,0.982710,-0.007625,0.030261,0.418745,0.907568,0.220600
1636030853515563.000000,-0.012383,-0.222223,0.980270,-0.007625,0.030261,0.418745,0.907568,0.222912
1636030853525125.000000,-0.017263,-0.244549,0.965020,-0.007625,0.030261,0.418745,0.907568,0.245765
1636030853534833.000000,-0.032818,-0.277611,0.953369,-0.007625,0.030261,0.418745,0.907568,0.281464
1636030853544388.000000,-0.042151,-0.296765,0.963922,-0.007625,0.030261,0.418745,0.907568,0.302693
1636030853554096.000000,-0.040260,-0.295606,0.957883,-0.007625,0.030261,0.418745,0.907568,0.301039
1636030853563658.000000,-0.030500,-0.302804,0.933666,-0.007625,0.030261,0.418745,0.907568,0.305861
1636030853573364.000000,-0.030927,-0.324703,0.926224,-0.007625,0.030261,0.418745,0.907568,0.327635
1636030853583060.000000,-0.041968,-0.347700,0.943060,-0.007625,0.030261,0.418745,0.907568,0.352729
1636030853592609.000000,-0.042029,-0.355386,0.960994,-0.007625,0.030261,0.418745,0.907568,0.360322
1636030853602308.000000,-0.043371,-0.366732,0.956480,-0.007625,0.030261,0.418745,0.907568,0.371826
1636030853611858.000000,-0.044225,-0.383019,0.939827,-0.007625,0.030261,0.418745,0.907568,0.388092
1636030853621533.000000,-0.039711,-0.396927,0.940254,-0.007625,0.030261,0.418745,0.907568,0.400880
1636030853631138.000000,-0.031598,-0.406321,0.951051,-0.007625,0.030261,0.418745,0.907568,0.408771
1636030853640855.000000,-0.020557,-0.406443,0.948123,-0.007625,0.030261,0.418745,0.907568,0.407481
1636030853650416.000000,-0.018788,-0.416020,0.932019,-0.007625,0.030261,0.418745,0.907568,0.416868
1636030853660021.000000,-0.022021,-0.441640,0.914268,-0.007625,0.030261,0.418745,0.907568,0.442737
1636030853669684.000000,-0.012444,-0.461831,0.901946,-0.007625,0.030261,0.418745,0.907568,0.462166
1636030853679435.000000,-0.001525,-0.482937,0.899201,-0.007625,0.030261,0.418745,0.907568,0.482942
1636030853689027.000000,-0.011407,-0.524539,0.940559,-0.007625,0.030261,0.418745,0.907568,0.524787
1636030853698556.000000,-0.023607,-0.542778,0.919697,-0.007625,0.030261,0.418745,0.907568,0.543804
1636030853708262.000000,-0.015128,-0.544120,0.858026,-0.007625,0.030261,0.418745,0.907568,0.544540
1636030853717973.000000,-0.014823,-0.558272,0.855952,-0.007625,0.030261,0.418745,0.907568,0.558665
1636030853727548.000000,-0.013786,-0.557479,0.852658,-0.007625,0.030261,0.418745,0.907568,0.557820
1636030853737118.000000,-0.003843,-0.557296,0.850767,-0.007625,0.030261,0.418745,0.907568,0.557322
1636030853746815.000000,0.000671,-0.567239,0.847168,-0.007625,0.030261,0.418745,0.907568,0.567240
1636030853756509.000000,0.005246,-0.577060,0.840153,-0.007625,0.030261,0.418745,0.907568,0.577108
1636030853766070.000000,0.008479,-0.588223,0.830210,-0.007625,0.030261,0.418745,0.907568,0.588345
1636030853775777.000000,0.010004,-0.597373,0.823561,-0.007625,0.030261,0.418745,0.907568,0.597541
1636030853785324.000000,0.010553,-0.602741,0.820816,-0.007625,0.030261,0.418745,0.907568,0.602926
1636030853795028.000000,0.014091,-0.612257,0.814045,-0.007625,0.030261,0.418745,0.907568,0.612581
1636030853804576.000000,0.015006,-0.620858,0.810202,-0.007625,0.030261,0.418745,0.907568,0.621221
1636030853814277.000000,0.016226,-0.627446,0.809470,-0.007625,0.030261,0.418745,0.907568,0.627865
1636030853823824.000000,0.014579,-0.631411,0.808311,-0.007625,0.030261,0.418745,0.907568,0.631748
1636030853833527.000000,0.008906,-0.635986,0.801479,-0.007625,0.030261,0.418745,0.907568,0.636111
1636030853843230.000000,0.010248,-0.644160,0.795013,-0.007625,0.030261,0.418745,0.907568,0.644323
1636030853852775.000000,0.013664,-0.652334,0.793488,-0.007625,0.030261,0.418745,0.907568,0.652620
1636030853862478.000000,0.013420,-0.659227,0.790194,-0.007625,0.030261,0.418745,0.907568,0.659500
1636030853872020.000000,0.013054,-0.665022,0.782569,-0.007625,0.030261,0.418745,0.907568,0.665278
1636030853881721.000000,0.012932,-0.683444,0.766648,-0.007625,0.030261,0.418745,0.907568,0.683689
1636030853891309.000000,0.012139,-0.687836,0.756339,-0.007625,0.030261,0.418745,0.907568,0.688050
1636030853901014.000000,0.013481,-0.686555,0.759450,-0.007625,0.030261,0.418745,0.907568,0.686820
1636030853910568.000000,0.014030,-0.696925,0.764147,-0.007625,0.030261,0.418745,0.907568,0.697207
1636030853920276.000000,0.012505,-0.710345,0.736575,-0.007625,0.030261,0.418745,0.907568,0.710565
1636030853929869.000000,0.013054,-0.719251,0.721447,-0.007625,0.030261,0.418745,0.907568,0.719488
1636030853939531.000000,0.014518,-0.720654,0.726083,-0.007625,0.030261,0.418745,0.907568,0.720946
1636030853949120.000000,0.013542,-0.726754,0.719129,-0.007625,0.030261,0.418745,0.907568,0.727006
1636030853958844.000000,0.014762,-0.730231,0.720105,-0.007625,0.030261,0.418745,0.907568,0.730529
1636030853968423.000000,0.015372,-0.735538,0.715713,-0.007625,0.030261,0.418745,0.907568,0.735859
1636030853978142.000000,0.013359,-0.740601,0.712236,-0.007625,0.030261,0.418745,0.907568,0.740842
1636030853987732.000000,0.011102,-0.744810,0.708210,-0.007625,0.030261,0.418745,0.907568,0.744975
1636030853997402.000000,0.011895,-0.756095,0.692167,-0.007625,0.030261,0.418745,0.907568,0.756282
1636030854006959.000000,0.011773,-0.768966,0.677039,-0.007625,0.030261,0.418745,0.907568,0.769146
1636030854016649.000000,0.004697,-0.776408,0.673318,-0.007625,0.030261,0.418745,0.907568,0.776436
1636030854026197.000000,0.001830,-0.787022,0.651541,-0.007625,0.030261,0.418745,0.907568,0.787026
1636030854035924.000000,0.007259,-0.802699,0.616893,-0.007625,0.030261,0.418745,0.907568,0.802765
1636030854045480.000000,0.010004,-0.811605,0.604754,-0.007625,0.030261,0.418745,0.907568,0.811728
1636030854055184.000000,0.010858,-0.817766,0.599447,-0.007625,0.030261,0.418745,0.907568,0.817910
1636030854064760.000000,0.013054,-0.820694,0.596580,-0.007625,0.030261,0.418745,0.907568,0.820902
1636030854074475.000000,0.013298,-0.817644,0.608719,-0.007625,0.030261,0.418745,0.907568,0.817860
1636030854084036.000000,0.013420,-0.813557,0.623786,-0.007625,0.030261,0.418745,0.907568,0.813778
1636030854093744.000000,0.012017,-0.810751,0.629825,-0.007625,0.030261,0.418745,0.907568,0.810929
1636030854103292.000000,0.014030,-0.811422,0.626348,-0.007625,0.030261,0.418745,0.907568,0.811665
1636030854112910.000000,0.017690,-0.818437,0.619333,-0.007625,0.030261,0.418745,0.907568,0.818819
1636030854122629.000000,0.012932,-0.823988,0.615124,-0.007625,0.030261,0.418745,0.907568,0.824191
1636030854132213.000000,0.008235,-0.828929,0.610610,-0.007625,0.030261,0.418745,0.907568,0.829011
1636030854141930.000000,0.010370,-0.834053,0.605730,-0.007625,0.030261,0.418745,0.907568,0.834182
1636030854151530.000000,0.010614,-0.833748,0.602863,-0.007625,0.030261,0.418745,0.907568,0.833883
1636030854161099.000000,0.010065,-0.833687,0.603046,-0.007625,0.030261,0.418745,0.907568,0.833809
1636030854170726.000000,0.013908,-0.833687,0.607621,-0.007625,0.030261,0.418745,0.907568,0.833919
1636030854180417.000000,0.015494,-0.835090,0.611342,-0.007625,0.030261,0.418745,0.907568,0.835377
1636030854190123.000000,0.014030,-0.838994,0.606706,-0.007625,0.030261,0.418745,0.907568,0.839229
1636030854199672.000000,0.013115,-0.845277,0.590236,-0.007625,0.030261,0.418745,0.907568,0.845480
1636030854209361.000000,0.013420,-0.852902,0.573400,-0.007625,0.030261,0.418745,0.907568,0.853113
1636030854218969.000000,0.014518,-0.858514,0.563945,-0.007625,0.030261,0.418745,0.907568,0.858759
1636030854228545.000000,0.011956,-0.860527,0.558516,-0.007625,0.030261,0.418745,0.907568,0.860693
1636030854238246.000000,0.008540,-0.862540,0.548939,-0.007625,0.030261,0.418745,0.907568,0.862625
1636030854247958.000000,0.003538,-0.860771,0.548024,-0.007625,0.030261,0.418745,0.907568,0.860786
1636030854257527.000000,0.003782,-0.867664,0.538142,-0.007625,0.030261,0.418745,0.907568,0.867680
1636030854267083.000000,0.006283,-0.869738,0.538752,-0.007625,0.030261,0.418745,0.907568,0.869783
1636030854276799.000000,0.004148,-0.863028,0.554063,-0.007625,0.030261,0.418745,0.907568,0.863048
1636030854286494.000000,0.000793,-0.862296,0.551867,-0.007625,0.030261,0.418745,0.907568,0.862297
1636030854296057.000000,-0.000061,-0.866444,0.541375,-0.007625,0.030261,0.418745,0.907568,0.866444
1636030854305640.000000,0.000915,-0.869128,0.540826,-0.007625,0.030261,0.418745,0.907568,0.869129
1636030854315360.000000,0.001220,-0.865773,0.550586,-0.007625,0.030261,0.418745,0.907568,0.865775
1636030854324928.000000,0.004087,-0.866932,0.552111,-0.007625,0.030261,0.418745,0.907568,0.866951
1636030854334668.000000,0.003904,-0.867603,0.552050,-0.007625,0.030261,0.418745,0.907568,0.867621
1636030854344216.000000,0.002135,-0.869189,0.547048,-0.007625,0.030261,0.418745,0.907568,0.869194
1636030854353908.000000,-0.000488,-0.870653,0.538325,-0.007625,0.030261,0.418745,0.907568,0.870653
1636030854363580.000000,-0.001464,-0.870592,0.535702,-0.007625,0.030261,0.418745,0.907568,0.870594
1636030854373136.000000,0.001769,-0.871446,0.538813,-0.007625,0.030261,0.418745,0.907568,0.871450
1636030854382854.000000,0.004453,-0.873886,0.537349,-0.007625,0.030261,0.418745,0.907568,0.873909
1636030854392429.000000,0.005551,-0.875533,0.534665,-0.007625,0.030261,0.418745,0.907568,0.875568
1636030854402008.000000,0.007015,-0.873276,0.539972,-0.007625,0.030261,0.418745,0.907568,0.873332
1636030854411758.000000,0.009455,-0.869128,0.554490,-0.007625,0.030261,0.418745,0.907568,0.869231
1636030854421329.000000,0.010309,-0.866139,0.565409,-0.007625,0.030261,0.418745,0.907568,0.866262
1636030854430935.000000,0.009516,-0.865773,0.566263,-0.007625,0.030261,0.418745,0.907568,0.865878
1636030854440664.000000,0.008723,-0.866810,0.562481,-0.007625,0.030261,0.418745,0.907568,0.866898
1636030854450242.000000,0.006710,-0.867054,0.558272,-0.007625,0.030261,0.418745,0.907568,0.867106
1636030854459816.000000,0.003965,-0.866566,0.555039,-0.007625,0.030261,0.418745,0.907568,0.866584
1636030854469565.000000,0.002135,-0.866627,0.551318,-0.007625,0.030261,0.418745,0.907568,0.866632
1636030854479145.000000,0.001220,-0.867115,0.549061,-0.007625,0.030261,0.418745,0.907568,0.867117
1636030854488730.000000,0.000732,-0.867115,0.549061,-0.007625,0.030261,0.418745,0.907568,0.867116
1636030854498456.000000,0.001830,-0.866749,0.549915,-0.007625,0.030261,0.418745,0.907568,0.866753
1636030854508033.000000,0.003233,-0.866932,0.550037,-0.007625,0.030261,0.418745,0.907568,0.866944
1636030854517628.000000,0.004636,-0.867908,0.548756,-0.007625,0.030261,0.418745,0.907568,0.867933
1636030854527353.000000,0.006039,-0.868884,0.547719,-0.007625,0.030261,0.418745,0.907568,0.868926
1636030854536920.000000,0.007259,-0.869860,0.548390,-0.007625,0.030261,0.418745,0.907568,0.869921
1636030854546643.000000,0.008174,-0.872178,0.548939,-0.007625,0.030261,0.418745,0.907568,0.872255
1636030854556217.000000,0.007259,-0.871019,0.548451,-0.007625,0.030261,0.418745,0.907568,0.871079
1636030854565939.000000,0.005124,-0.867298,0.551440,-0.007625,0.030261,0.418745,0.907568,0.867328
1636030854575525.000000,0.005368,-0.866993,0.554429,-0.007625,0.030261,0.418745,0.907568,0.867026
1636030854585095.000000,0.006466,-0.868396,0.551623,-0.007625,0.030261,0.418745,0.907568,0.868444
1636030854594807.000000,0.006344,-0.868335,0.551196,-0.007625,0.030261,0.418745,0.907568,0.868381
1636030854604409.000000,0.006649,-0.866566,0.554978,-0.007625,0.030261,0.418745,0.907568,0.866617
1636030854613993.000000,0.006649,-0.865346,0.558028,-0.007625,0.030261,0.418745,0.907568,0.865397
1636030854623726.000000,0.005673,-0.864614,0.559309,-0.007625,0.030261,0.418745,0.907568,0.864651
1636030854633304.000000,0.005063,-0.864187,0.557052,-0.007625,0.030261,0.418745,0.907568,0.864217
1636030854643032.000000,0.004575,-0.864370,0.554063,-0.007625,0.030261,0.418745,0.907568,0.864394
1636030854652617.000000,0.004880,-0.864248,0.554612,-0.007625,0.030261,0.418745,0.907568,0.864276
1636030854662230.000000,0.006527,-0.865407,0.555344,-0.007625,0.030261,0.418745,0.907568,0.865456
1636030854671836.000000,0.005917,-0.862967,0.559004,-0.007625,0.030261,0.418745,0.907568,0.863008
1636030854681545.000000,0.006771,-0.859856,0.564799,-0.007625,0.030261,0.418745,0.907568,0.859909
1636030854691154.000000,0.008357,-0.860954,0.563091,-0.007625,0.030261,0.418745,0.907568,0.861035
1636030854700723.000000,0.007320,-0.861869,0.556076,-0.007625,0.030261,0.418745,0.907568,0.861931
1636030854710478.000000,0.008479,-0.860466,0.555405,-0.007625,0.030261,0.418745,0.907568,0.860550
1636030854720054.000000,0.010065,-0.862357,0.552233,-0.007625,0.030261,0.418745,0.907568,0.862474
1636030854729644.000000,0.010126,-0.864919,0.549610,-0.007625,0.030261,0.418745,0.907568,0.865038
1636030854739374.000000,0.009882,-0.862174,0.555283,-0.007625,0.030261,0.418745,0.907568,0.862287
1636030854748949.000000,0.010553,-0.860039,0.559492,-0.007625,0.030261,0.418745,0.907568,0.860168
1636030854758521.000000,0.011590,-0.861015,0.560346,-0.007625,0.030261,0.418745,0.907568,0.861171
1636030854768252.000000,0.011834,-0.861808,0.557845,-0.007625,0.030261,0.418745,0.907568,0.861970
1636030854777829.000000,0.014518,-0.860527,0.557357,-0.007625,0.030261,0.418745,0.907568,0.860772
1636030854787542.000000,0.019764,-0.855098,0.560346,-0.007625,0.030261,0.418745,0.907568,0.855555
1636030854797110.000000,0.031049,-0.872788,0.551440,-0.007625,0.030261,0.418745,0.907568,0.873892
1636030854806833.000000,0.011163,-0.866566,0.575901,-0.007625,0.030261,0.418745,0.907568,0.866710
1636030854816389.000000,0.001037,-0.850218,0.579988,-0.007625,0.030261,0.418745,0.907568,0.850219
1636030854826111.000000,0.014152,-0.856379,0.555283,-0.007625,0.030261,0.418745,0.907568,0.856613
1636030854835706.000000,0.008784,-0.850706,0.564799,-0.007625,0.030261,0.418745,0.907568,0.850797
1636030854845280.000000,0.011529,-0.855586,0.559614,-0.007625,0.030261,0.418745,0.907568,0.855741
1636030854855010.000000,0.013298,-0.849791,0.567910,-0.007625,0.030261,0.418745,0.907568,0.849999
1636030854864591.000000,0.011956,-0.838994,0.586454,-0.007625,0.030261,0.418745,0.907568,0.839164
1636030854874169.000000,0.012017,-0.837042,0.586637,-0.007625,0.030261,0.418745,0.907568,0.837214
1636030854883890.000000,0.009089,-0.829844,0.589260,-0.007625,0.030261,0.418745,0.907568,0.829944
1636030854893478.000000,0.006710,-0.824842,0.592493,-0.007625,0.030261,0.418745,0.907568,0.824897
1636030854903130.000000,0.007320,-0.823744,0.593896,-0.007625,0.030261,0.418745,0.907568,0.823809
1636030854912700.000000,0.009699,-0.818193,0.606462,-0.007625,0.030261,0.418745,0.907568,0.818308
1636030854922421.000000,0.011590,-0.809531,0.623115,-0.007625,0.030261,0.418745,0.907568,0.809697
1636030854932000.000000,0.010675,-0.799649,0.637877,-0.007625,0.030261,0.418745,0.907568,0.799791
1636030854941689.000000,0.011773,-0.794586,0.645807,-0.007625,0.030261,0.418745,0.907568,0.794760
1636030854951339.000000,0.014945,-0.793427,0.647881,-0.007625,0.030261,0.418745,0.907568,0.793708
1636030854961009.000000,0.019520,-0.789523,0.654774,-0.007625,0.030261,0.418745,0.907568,0.790005
1636030854970648.000000,0.016348,-0.777872,0.667035,-0.007625,0.030261,0.418745,0.907568,0.778215
1636030854980184.000000,0.015006,-0.770918,0.670024,-0.007625,0.030261,0.418745,0.907568,0.771210
1636030854989841.000000,0.014823,-0.764330,0.675270,-0.007625,0.030261,0.418745,0.907568,0.764617
1636030854999503.000000,0.009455,-0.753228,0.687897,-0.007625,0.030261,0.418745,0.907568,0.753347
1636030855009137.000000,0.012322,-0.748531,0.693448,-0.007625,0.030261,0.418745,0.907568,0.748734
1636030855018791.000000,0.013054,-0.741150,0.702171,-0.007625,0.030261,0.418745,0.907568,0.741380
1636030855028440.000000,0.012383,-0.730109,0.718519,-0.007625,0.030261,0.418745,0.907568,0.730319
1636030855038004.000000,0.017385,-0.724436,0.729194,-0.007625,0.030261,0.418745,0.907568,0.724853
1636030855047587.000000,0.019093,-0.718641,0.734867,-0.007625,0.030261,0.418745,0.907568,0.719148
1636030855057333.000000,0.015311,-0.706319,0.747250,-0.007625,0.030261,0.418745,0.907568,0.706651
1636030855066858.000000,0.011285,-0.695400,0.755241,-0.007625,0.030261,0.418745,0.907568,0.695583
1636030855076571.000000,0.008418,-0.690398,0.751947,-0.007625,0.030261,0.418745,0.907568,0.690501
1636030855086181.000000,0.005856,-0.685457,0.749995,-0.007625,0.030261,0.418745,0.907568,0.685507
1636030855095848.000000,0.004575,-0.676673,0.753228,-0.007625,0.030261,0.418745,0.907568,0.676704
1636030855105483.000000,0.004087,-0.668743,0.758169,-0.007625,0.030261,0.418745,0.907568,0.668768
1636030855115159.000000,0.010065,-0.661606,0.769698,-0.007625,0.030261,0.418745,0.907568,0.661759
1636030855124779.000000,0.020252,-0.644465,0.793000,-0.007625,0.030261,0.418745,0.907568,0.645101
1636030855134329.000000,0.025559,-0.627751,0.815326,-0.007625,0.030261,0.418745,0.907568,0.628791
1636030855143975.000000,0.028304,-0.619089,0.823805,-0.007625,0.030261,0.418745,0.907568,0.620382
1636030855153594.000000,0.024217,-0.612257,0.829356,-0.007625,0.030261,0.418745,0.907568,0.613214
1636030855163234.000000,0.019886,-0.604998,0.833077,-0.007625,0.030261,0.418745,0.907568,0.605651
1636030855172900.000000,0.010980,-0.595970,0.834114,-0.007625,0.030261,0.418745,0.907568,0.596172
1636030855182518.000000,-0.000427,-0.588345,0.835883,-0.007625,0.030261,0.418745,0.907568,0.588345
1636030855192143.000000,0.000976,-0.578158,0.839543,-0.007625,0.030261,0.418745,0.907568,0.578160
1636030855201853.000000,0.003294,-0.568520,0.847107,-0.007625,0.030261,0.418745,0.907568,0.568539
1636030855211504.000000,0.006893,-0.560041,0.851987,-0.007625,0.030261,0.418745,0.907568,0.560126
1636030855221135.000000,0.012871,-0.550769,0.857233,-0.007625,0.030261,0.418745,0.907568,0.551070
1636030855230759.000000,0.015250,-0.538020,0.866627,-0.007625,0.030261,0.418745,0.907568,0.538452
1636030855240392.000000,0.009028,-0.537349,0.868335,-0.007625,0.030261,0.418745,0.907568,0.537501
1636030855250018.000000,0.006954,-0.533262,0.866017,-0.007625,0.030261,0.418745,0.907568,0.533353
1636030855259646.000000,0.004087,-0.521245,0.873276,-0.007625,0.030261,0.418745,0.907568,0.521277
1636030855269303.000000,0.002379,-0.510265,0.885659,-0.007625,0.030261,0.418745,0.907568,0.510276
1636030855278935.000000,0.000793,-0.491782,0.897432,-0.007625,0.030261,0.418745,0.907568,0.491783
1636030855288551.000000,0.000854,-0.476532,0.905179,-0.007625,0.030261,0.418745,0.907568,0.476534
1636030855298174.000000,0.006222,-0.463051,0.915183,-0.007625,0.030261,0.418745,0.907568,0.463135
1636030855307827.000000,0.006466,-0.447557,0.931775,-0.007625,0.030261,0.418745,0.907568,0.447650
1636030855317446.000000,0.007564,-0.433588,0.944036,-0.007625,0.030261,0.418745,0.907568,0.433720
1636030855327073.000000,0.007015,-0.425414,0.948428,-0.007625,0.030261,0.418745,0.907568,0.425530
1636030855336721.000000,0.007808,-0.416691,0.949221,-0.007625,0.030261,0.418745,0.907568,0.416837
1636030855346340.000000,0.006771,-0.409737,0.949831,-0.007625,0.030261,0.418745,0.907568,0.409849
1636030855355969.000000,0.000915,-0.401929,0.951173,-0.007625,0.030261,0.418745,0.907568,0.401931
1636030855365591.000000,-0.004087,-0.393938,0.949709,-0.007625,0.030261,0.418745,0.907568,0.393980
1636030855375244.000000,0.009577,-0.384544,0.984662,-0.007625,0.030261,0.418745,0.907568,0.384782
1636030855384866.000000,0.010004,-0.356484,1.011075,-0.007625,0.030261,0.418745,0.907568,0.356765
1636030855394491.000000,0.003843,-0.355325,0.990091,-0.007625,0.030261,0.418745,0.907568,0.355367
1636030855404132.000000,0.008662,-0.364048,0.983808,-0.007625,0.030261,0.418745,0.907568,0.364254
1636030855413865.000000,0.006039,-0.345443,0.987163,-0.007625,0.030261,0.418745,0.907568,0.345549
1636030855423397.000000,0.009333,-0.332084,0.981673,-0.007625,0.030261,0.418745,0.907568,0.332346
1636030855433025.000000,0.005795,-0.329644,0.975207,-0.007625,0.030261,0.418745,0.907568,0.329746
1636030855442729.000000,0.001159,-0.323056,0.977098,-0.007625,0.030261,0.418745,0.907568,0.323060
1636030855452325.000000,-0.000183,-0.306830,0.983503,-0.007625,0.030261,0.418745,0.907568,0.306830
1636030855462049.000000,-0.007564,-0.297131,0.982893,-0.007625,0.030261,0.418745,0.907568,0.297323
1636030855471613.000000,-0.009333,-0.307501,0.976183,-0.007625,0.030261,0.418745,0.907568,0.307784
1636030855481325.000000,-0.008906,-0.315553,0.975939,-0.007625,0.030261,0.418745,0.907568,0.315804
1636030855490898.000000,-0.010492,-0.307013,0.981124,-0.007625,0.030261,0.418745,0.907568,0.307371
1636030855500602.000000,-0.010858,-0.297924,0.988383,-0.007625,0.030261,0.418745,0.907568,0.298319
1636030855510173.000000,-0.012200,-0.285053,0.992775,-0.007625,0.030261,0.418745,0.907568,0.285575
1636030855519747.000000,-0.014335,-0.272243,0.999302,-0.007625,0.030261,0.418745,0.907568,0.272997
1636030855529450.000000,-0.014518,-0.260531,1.010587,-0.007625,0.030261,0.418745,0.907568,0.261339
1636030855539025.000000,-0.016592,-0.250161,1.020957,-0.007625,0.030261,0.418745,0.907568,0.251259
1636030855548749.000000,-0.015372,-0.236375,1.038586,-0.007625,0.030261,0.418745,0.907568,0.237373
1636030855558316.000000,-0.015128,-0.230031,1.039013,-0.007625,0.030261,0.418745,0.907568,0.231024
1636030855568052.000000,-0.017080,-0.231678,1.024678,-0.007625,0.030261,0.418745,0.907568,0.232934
1636030855577633.000000,-0.017324,-0.230214,1.019432,-0.007625,0.030261,0.418745,0.907568,0.231514
1636030855587331.000000,-0.017019,-0.230397,1.013820,-0.007625,0.030261,0.418745,0.907568,0.231651
1636030855596890.000000,-0.017141,-0.233508,1.006805,-0.007625,0.030261,0.418745,0.907568,0.234763
1636030855606590.000000,-0.020252,-0.237473,0.996801,-0.007625,0.030261,0.418745,0.907568,0.239194
1636030855616158.000000,-0.018361,-0.239364,0.986187,-0.007625,0.030261,0.418745,0.907568,0.240768
1636030855625867.000000,-0.014457,-0.237900,0.983442,-0.007625,0.030261,0.418745,0.907568,0.238777
1636030855635405.000000,-0.012688,-0.233081,0.986980,-0.007625,0.030261,0.418745,0.907568,0.233771
1636030855645114.000000,-0.010980,-0.228323,0.989786,-0.007625,0.030261,0.418745,0.907568,0.228850
1636030855654684.000000,-0.012749,-0.222650,0.991982,-0.007625,0.030261,0.418745,0.907568,0.223379
1636030855664295.000000,-0.015128,-0.216794,0.993324,-0.007625,0.030261,0.418745,0.907568,0.217847
1636030855674001.000000,-0.014701,-0.213439,0.991555,-0.007625,0.030261,0.418745,0.907568,0.214449
1636030855683573.000000,-0.015433,-0.208010,0.991433,-0.007625,0.030261,0.418745,0.907568,0.209152
1636030855693279.000000,-0.016653,-0.200873,0.995032,-0.007625,0.030261,0.418745,0.907568,0.202249
1636030855702847.000000,-0.017202,-0.193675,1.000339,-0.007625,0.030261,0.418745,0.907568,0.195197
1636030855712539.000000,-0.018727,-0.185684,1.006134,-0.007625,0.030261,0.418745,0.907568,0.187563
1636030855722106.000000,-0.018788,-0.178425,1.010648,-0.007625,0.030261,0.418745,0.907568,0.180393
1636030855731813.000000,-0.016043,-0.172264,1.015467,-0.007625,0.030261,0.418745,0.907568,0.173752
1636030855741542.000000,-0.014518,-0.166164,1.016199,-0.007625,0.030261,0.418745,0.907568,0.167428
1636030855751167.000000,-0.015799,-0.160308,1.012783,-0.007625,0.030261,0.418745,0.907568,0.161858
1636030855760792.000000,-0.016531,-0.155245,1.008696,-0.007625,0.030261,0.418745,0.907568,0.156995
1636030855770407.000000,-0.015128,-0.151646,1.005768,-0.007625,0.030261,0.418745,0.907568,0.153148
1636030855780016.000000,-0.013359,-0.146949,1.006988,-0.007625,0.030261,0.418745,0.907568,0.148158
1636030855789628.000000,-0.010431,-0.138897,1.013271,-0.007625,0.030261,0.418745,0.907568,0.139678
1636030855799235.000000,-0.007991,-0.128893,1.020103,-0.007625,0.030261,0.418745,0.907568,0.129387
1636030855808999.000000,-0.008967,-0.118096,1.025410,-0.007625,0.030261,0.418745,0.907568,0.118775
1636030855818607.000000,-0.009577,-0.108153,1.032547,-0.007625,0.030261,0.418745,0.907568,0.108998
1636030855828226.000000,-0.008357,-0.101565,1.035658,-0.007625,0.030261,0.418745,0.907568,0.102250
1636030855837845.000000,-0.010187,-0.097295,1.032303,-0.007625,0.030261,0.418745,0.907568,0.098356
1636030855847434.000000,-0.012444,-0.093452,1.027972,-0.007625,0.030261,0.418745,0.907568,0.095095
1636030855857155.000000,-0.012688,-0.092964,1.018761,-0.007625,0.030261,0.418745,0.907568,0.094680
1636030855866715.000000,-0.012810,-0.091378,1.011868,-0.007625,0.030261,0.418745,0.907568,0.093156
1636030855876440.000000,-0.014884,-0.082411,1.017541,-0.007625,0.030261,0.418745,0.907568,0.085057
1636030855886011.000000,-0.016165,-0.070882,1.027240,-0.007625,0.030261,0.418745,0.907568,0.074477
1636030855895586.000000,-0.013969,-0.060451,1.036024,-0.007625,0.030261,0.418745,0.907568,0.063597
1636030855905307.000000,-0.012017,-0.050081,1.045296,-0.007625,0.030261,0.418745,0.907568,0.052886
1636030855914875.000000,-0.012200,-0.040504,1.054934,-0.007625,0.030261,0.418745,0.907568,0.044026
1636030855924611.000000,-0.012810,-0.037210,1.054812,-0.007625,0.030261,0.418745,0.907568,0.041386
1636030855934218.000000,-0.012932,-0.040382,1.042734,-0.007625,0.030261,0.418745,0.907568,0.044330
1636030855943816.000000,-0.013359,-0.043371,1.030778,-0.007625,0.030261,0.418745,0.907568,0.047307
1636030855953420.000000,-0.012566,-0.044408,1.023397,-0.007625,0.030261,0.418745,0.907568,0.047832
1636030855963140.000000,-0.010736,-0.043676,1.019066,-0.007625,0.030261,0.418745,0.907568,0.046240
1636030855972765.000000,-0.010553,-0.040992,1.017663,-0.007625,0.030261,0.418745,0.907568,0.043624
1636030855982315.000000,-0.013115,-0.040138,1.015101,-0.007625,0.030261,0.418745,0.907568,0.044216
1636030855992018.000000,-0.015677,-0.041236,1.010038,-0.007625,0.030261,0.418745,0.907568,0.046818
1636030856001722.000000,-0.014457,-0.038918,1.005829,-0.007625,0.030261,0.418745,0.907568,0.043962
1636030856011257.000000,-0.012078,-0.033245,1.006317,-0.007625,0.030261,0.418745,0.907568,0.037376
1636030856020988.000000,-0.005612,0.033916,1.123498,-0.007625,0.030261,0.418745,0.907568,0.034832
1636030856030538.000000,-0.018971,0.044957,1.128805,-0.007625,0.030261,0.418745,0.907568,0.052354
1636030856040261.000000,-0.025986,-0.013237,1.020652,-0.007625,0.030261,0.418745,0.907568,0.039061
1636030856049819.000000,-0.014457,-0.017019,1.022238,-0.007625,0.030261,0.418745,0.907568,0.026602
1636030856059512.000000,-0.013908,-0.015616,1.023824,-0.007625,0.030261,0.418745,0.907568,0.025114
1636030856069081.000000,-0.012444,-0.014701,1.027301,-0.007625,0.030261,0.418745,0.907568,0.022931
1636030856078796.000000,-0.012261,-0.014518,1.028399,-0.007625,0.030261,0.418745,0.907568,0.022615
1636030856088341.000000,-0.012871,-0.016104,1.025044,-0.007625,0.030261,0.418745,0.907568,0.024304
1636030856098035.000000,-0.012749,-0.016409,1.024068,-0.007625,0.030261,0.418745,0.907568,0.024379
1636030856107599.000000,-0.012200,-0.015494,1.026142,-0.007625,0.030261,0.418745,0.907568,0.023189
1636030856117305.000000,-0.012078,-0.015311,1.025044,-0.007625,0.030261,0.418745,0.907568,0.022939
1636030856126991.000000,-0.011773,-0.014823,1.024312,-0.007625,0.030261,0.418745,0.907568,0.022292
1636030856136535.000000,-0.012017,-0.015921,1.023885,-0.007625,0.030261,0.418745,0.907568,0.023287
1636030856146233.000000,-0.012383,-0.016043,1.023946,-0.007625,0.030261,0.418745,0.907568,0.023750
1636030856155778.000000,-0.012505,-0.014823,1.025227,-0.007625,0.030261,0.418745,0.907568,0.023075
1636030856165442.000000,-0.012810,-0.015067,1.024556,-0.007625,0.030261,0.418745,0.907568,0.023563
1636030856175023.000000,-0.011895,-0.013786,1.025410,-0.007625,0.030261,0.418745,0.907568,0.021749
1636030856184727.000000,-0.011468,-0.012688,1.026691,-0.007625,0.030261,0.418745,0.907568,0.020592
1636030856194419.000000,-0.011895,-0.013847,1.025349,-0.007625,0.030261,0.418745,0.907568,0.021788
1636030856203965.000000,-0.010919,-0.014945,1.024556,-0.007625,0.030261,0.418745,0.907568,0.021490
1636030856213657.000000,-0.011590,-0.015677,1.024556,-0.007625,0.030261,0.418745,0.907568,0.022681
1636030856223205.000000,-0.017568,-0.020313,1.023397,-0.007625,0.030261,0.418745,0.907568,0.032092
1636030856232901.000000,-0.018971,-0.020252,1.021811,-0.007625,0.030261,0.418745,0.907568,0.033615
1636030856242623.000000,0.001769,-0.004514,1.028338,-0.007625,0.030261,0.418745,0.907568,0.005161
1636030856252169.000000,0.004697,-0.002135,1.031266,-0.007625,0.030261,0.418745,0.907568,0.006977
1636030856261873.000000,-0.025071,-0.022448,1.018395,-0.007625,0.030261,0.418745,0.907568,0.041965
1636030856271417.000000,-0.021106,-0.021167,1.022726,-0.007625,0.030261,0.418745,0.907568,0.036592
1636030856281119.000000,-0.001464,-0.009699,1.030717,-0.007625,0.030261,0.418745,0.907568,0.009918
1636030856290669.000000,-0.003294,-0.009516,1.026325,-0.007625,0.030261,0.418745,0.907568,0.010595
1636030856300385.000000,-0.007259,-0.010370,1.027423,-0.007625,0.030261,0.418745,0.907568,0.014592
1636030856310073.000000,-0.008296,-0.012200,1.027972,-0.007625,0.030261,0.418745,0.907568,0.016926
1636030856319592.000000,-0.007442,-0.011895,1.025715,-0.007625,0.030261,0.418745,0.907568,0.015883
1636030856329344.000000,-0.006893,-0.010919,1.024190,-0.007625,0.030261,0.418745,0.907568,0.014637
1636030856338943.000000,-0.007503,-0.010797,1.025166,-0.007625,0.030261,0.418745,0.907568,0.015138
1636030856348513.000000,-0.007320,-0.012322,1.026935,-0.007625,0.030261,0.418745,0.907568,0.016093
1636030856358241.000000,-0.008784,-0.015921,1.032181,-0.007625,0.030261,0.418745,0.907568,0.020194
1636030856367812.000000,-0.013786,-0.028731,1.057923,-0.007625,0.030261,0.418745,0.907568,0.034721
